#time,accel_x,accel_y,accel_z
83.735836,0.000000,-74.020594,9326.594869
83.736162,-306.438199,-0.000000,9030.512492
83.736488,0.000000,-0.000000,9104.533087
83.736814,0.000000,74.020594,9326.594869
83.737140,-153.219100,296.082377,9104.533087
83.737466,0.000000,296.082377,9178.553681
83.737792,306.438199,-0.000000,9474.636058
83.738118,0.000000,148.041188,9696.697840
83.738444,-383.047749,74.020594,9326.594869
83.738770,-229.828649,-0.000000,9030.512492
83.739096,0.000000,-0.000000,9400.615463
83.739422,0.000000,-0.000000,9030.512492
83.739748,153.219100,-0.000000,9030.512492
83.740074,0.000000,-0.000000,9400.615463
83.740400,153.219100,-222.061783,9400.615463
83.740726,153.219100,-74.020594,8808.450710
83.741052,76.609550,-148.041188,9104.533087
83.741378,-153.219100,-0.000000,9326.594869
83.741704,76.609550,370.102971,9030.512492
83.742030,383.047749,370.102971,8882.471304
83.742356,0.000000,592.164754,8956.491898
83.742682,153.219100,-0.000000,9104.533087
83.743008,0.000000,-370.102971,8660.409521
83.743334,0.000000,-296.082377,9400.615463
83.743660,0.000000,-148.041188,9400.615463
83.743986,229.828649,-370.102971,9622.677246
83.744312,-306.438199,-0.000000,9252.574275
83.744638,229.828649,-222.061783,9252.574275
83.744964,0.000000,-0.000000,9696.697840
83.745290,153.219100,-0.000000,9474.636058
83.745616,536.266849,370.102971,8660.409521
83.745942,766.095498,296.082377,9030.512492
83.746268,383.047749,148.041188,9252.574275
83.746594,536.266849,148.041188,8882.471304
83.746920,1378.971896,222.061783,9104.533087
83.747246,995.924147,-0.000000,8882.471304
83.747572,0.000000,222.061783,9474.636058
83.747898,689.485948,-0.000000,9400.615463
83.748224,612.876398,-0.000000,8734.430116
83.748550,536.266849,-0.000000,9400.615463
83.748876,153.219100,-74.020594,9400.615463
83.749202,383.047749,-74.020594,8808.450710
83.749528,383.047749,-74.020594,9326.594869
83.749854,153.219100,-148.041188,9104.533087
83.750180,229.828649,-0.000000,9104.533087
83.750506,76.609550,222.061783,9252.574275
83.750832,383.047749,-222.061783,9178.553681
83.751158,383.047749,-0.000000,9030.512492
83.751484,842.705048,-444.123565,9030.512492
83.751810,306.438199,-0.000000,9252.574275
83.752136,842.705048,-0.000000,9030.512492
83.752463,306.438199,296.082377,8956.491898
83.752789,459.657299,296.082377,8808.450710
83.753115,459.657299,296.082377,8956.491898
83.753441,76.609550,296.082377,9252.574275
83.753767,383.047749,370.102971,9178.553681
83.754093,0.000000,-0.000000,9178.553681
83.754419,0.000000,-0.000000,9474.636058
83.754745,-229.828649,-0.000000,9400.615463
83.755071,0.000000,-74.020594,9252.574275
83.755397,0.000000,-0.000000,9548.656652
83.755723,229.828649,-0.000000,9178.553681
83.756049,306.438199,148.041188,9252.574275
83.756375,0.000000,148.041188,8882.471304
83.756701,0.000000,222.061783,9030.512492
83.757027,229.828649,-0.000000,9400.615463
83.757353,0.000000,296.082377,9104.533087
83.757679,0.000000,-0.000000,8882.471304
83.758005,229.828649,370.102971,9326.594869
83.758331,153.219100,-0.000000,9252.574275
83.758657,306.438199,-74.020594,8882.471304
83.758983,-229.828649,-0.000000,9548.656652
83.759309,229.828649,-148.041188,9178.553681
83.759635,76.609550,-74.020594,9474.636058
83.759961,306.438199,-0.000000,9030.512492
83.760287,612.876398,-0.000000,9474.636058
83.760613,383.047749,-0.000000,9400.615463
83.760939,459.657299,-0.000000,8956.491898
83.761265,0.000000,-0.000000,9326.594869
83.761591,383.047749,-74.020594,9548.656652
83.761917,459.657299,444.123565,8956.491898
83.762243,919.314598,518.144159,9030.512492
83.762569,536.266849,-0.000000,9178.553681
83.762895,689.485948,-0.000000,9178.553681
83.763221,689.485948,-0.000000,9104.533087
83.763547,919.314598,592.164754,9178.553681
83.763873,919.314598,-0.000000,9178.553681
83.764199,536.266849,-222.061783,9104.533087
83.764525,229.828649,-518.144159,9252.574275
83.764851,459.657299,-592.164754,9474.636058
83.765177,612.876398,-666.185348,9400.615463
83.765503,689.485948,-740.205942,9770.718434
83.765829,612.876398,-814.226536,9178.553681
83.766155,383.047749,-0.000000,9326.594869
83.766481,766.095498,518.144159,9326.594869
83.766807,1378.971896,740.205942,9178.553681
83.767133,1532.190996,592.164754,8438.347739
83.767459,1991.848295,888.247130,8438.347739
83.767785,1991.848295,740.205942,8438.347739
83.768111,1838.629195,888.247130,8734.430116
83.768437,1455.581446,444.123565,8956.491898
83.768763,919.314598,-0.000000,8956.491898
83.769090,612.876398,-370.102971,8882.471304
83.769416,76.609550,-444.123565,9474.636058
83.769742,-383.047749,-666.185348,9696.697840
83.770068,-306.438199,-814.226536,9696.697840
83.770394,-612.876398,-518.144159,9844.739029
83.770720,-536.266849,-296.082377,9474.636058
83.771046,-842.705048,-0.000000,9400.615463
83.771372,-995.924147,-222.061783,9474.636058
83.771698,-383.047749,-0.000000,9326.594869
83.772024,-383.047749,222.061783,8956.491898
83.772350,153.219100,370.102971,8290.306550
83.772676,536.266849,296.082377,9104.533087
83.773002,612.876398,-0.000000,8660.409521
83.773328,383.047749,296.082377,9030.512492
83.773654,0.000000,296.082377,8512.368333
83.773980,153.219100,222.061783,8808.450710
83.774306,-306.438199,148.041188,9178.553681
83.774632,-229.828649,222.061783,9326.594869
83.774958,-1149.143247,1110.308913,9178.553681
83.775284,-1302.362347,222.061783,9104.533087
83.775610,-1685.410096,-0.000000,9474.636058
83.775936,-1608.800546,-0.000000,9474.636058
83.776262,-1762.019645,-0.000000,9252.574275
83.776588,-1762.019645,148.041188,9548.656652
83.776914,-1225.752797,-148.041188,9474.636058
83.777240,-1302.362347,-444.123565,9178.553681
83.777566,-1225.752797,-444.123565,9252.574275
83.777892,-995.924147,-444.123565,8882.471304
83.778218,-1072.533697,-444.123565,9400.615463
83.778544,-842.705048,-592.164754,9252.574275
83.778870,-689.485948,-148.041188,9178.553681
83.779196,0.000000,-0.000000,8882.471304
83.779522,229.828649,444.123565,8364.327145
83.779848,0.000000,740.205942,8808.450710
83.780174,153.219100,592.164754,8882.471304
83.780500,459.657299,666.185348,8734.430116
83.780826,229.828649,888.247130,8808.450710
83.781152,612.876398,814.226536,9030.512492
83.781478,229.828649,666.185348,8956.491898
83.781804,153.219100,222.061783,9622.677246
83.782130,0.000000,-0.000000,9400.615463
83.782456,-536.266849,-666.185348,9622.677246
83.782782,-612.876398,-370.102971,9696.697840
83.783108,-919.314598,-518.144159,9622.677246
83.783434,-995.924147,-296.082377,9696.697840
83.783760,-995.924147,-74.020594,9474.636058
83.784086,-1072.533697,-0.000000,9326.594869
83.784412,-689.485948,-0.000000,9178.553681
83.784738,-153.219100,592.164754,9474.636058
83.785064,229.828649,-0.000000,9104.533087
83.785390,383.047749,592.164754,8882.471304
83.785717,383.047749,370.102971,8808.450710
83.786043,0.000000,518.144159,8586.388927
83.786369,383.047749,666.185348,9104.533087
83.786695,153.219100,-0.000000,8882.471304
83.787021,-229.828649,370.102971,8956.491898
83.787347,-536.266849,-74.020594,9622.677246
83.787673,-689.485948,296.082377,9770.718434
83.787999,-1149.143247,148.041188,9474.636058
83.788325,-1302.362347,370.102971,9326.594869
83.788651,-1455.581446,-0.000000,9548.656652
83.788977,-1225.752797,222.061783,9770.718434
83.789303,-995.924147,-0.000000,9326.594869
83.789629,-612.876398,-0.000000,9030.512492
83.789955,-689.485948,444.123565,8956.491898
83.790281,-766.095498,-0.000000,8882.471304
83.790607,-383.047749,-0.000000,8882.471304
83.790933,-153.219100,-0.000000,9104.533087
83.791259,-612.876398,-518.144159,8956.491898
83.791585,-1225.752797,-370.102971,9474.636058
83.791911,-919.314598,-888.247130,9178.553681
83.792237,-842.705048,-296.082377,9252.574275
83.792563,-1072.533697,-148.041188,9400.615463
83.792889,-842.705048,-0.000000,9326.594869
83.793215,-459.657299,222.061783,9326.594869
83.793541,-459.657299,296.082377,9104.533087
83.793867,0.000000,-0.000000,9178.553681
83.794193,0.000000,148.041188,9104.533087
83.794519,0.000000,518.144159,8956.491898
83.794845,-306.438199,222.061783,8808.450710
83.795171,153.219100,222.061783,9252.574275
83.795497,-383.047749,222.061783,9030.512492
83.795823,306.438199,-0.000000,9252.574275
83.796149,0.000000,-222.061783,9030.512492
83.796475,-689.485948,-370.102971,9844.739029
83.796801,-153.219100,-0.000000,9104.533087
83.797127,-229.828649,-74.020594,9326.594869
83.797453,-229.828649,-148.041188,9252.574275
83.797779,0.000000,-0.000000,9326.594869
83.798105,0.000000,-0.000000,9104.533087
83.798431,0.000000,-0.000000,8438.347739
83.798757,0.000000,74.020594,9474.636058
83.799083,0.000000,-0.000000,9030.512492
83.799409,76.609550,370.102971,9030.512492
83.799735,153.219100,-0.000000,9252.574275
83.800061,-306.438199,-0.000000,8734.430116
83.800387,0.000000,-74.020594,9622.677246
83.800713,-229.828649,-370.102971,9474.636058
83.801039,-306.438199,-0.000000,9400.615463
83.801365,-689.485948,-0.000000,9474.636058
83.801691,-383.047749,222.061783,9548.656652
83.802017,-459.657299,444.123565,9548.656652
83.802344,-383.047749,518.144159,9030.512492
83.802670,-383.047749,518.144159,9178.553681
83.802996,0.000000,444.123565,9474.636058
83.803322,0.000000,444.123565,9548.656652
83.803648,-306.438199,370.102971,8512.368333
83.803974,-306.438199,-0.000000,8882.471304
83.804300,-459.657299,-518.144159,9622.677246
83.804626,-689.485948,222.061783,9474.636058
83.804952,-153.219100,296.082377,9104.533087
83.805278,-153.219100,-148.041188,9178.553681
83.805604,-153.219100,-222.061783,9400.615463
83.805930,-612.876398,-888.247130,9622.677246
83.806256,-536.266849,-444.123565,9400.615463
83.806582,-995.924147,-0.000000,9178.553681
83.806908,-383.047749,222.061783,9178.553681
83.807234,-229.828649,740.205942,8808.450710
83.807560,-383.047749,592.164754,8734.430116
83.807886,0.000000,-0.000000,9474.636058
83.808212,-383.047749,-222.061783,9326.594869
83.808538,0.000000,-222.061783,9178.553681
83.808864,0.000000,-370.102971,9104.533087
83.809190,0.000000,-370.102971,9400.615463
83.809516,-306.438199,-0.000000,9474.636058
83.809842,0.000000,-0.000000,9400.615463
83.810168,-612.876398,222.061783,8956.491898
83.810494,76.609550,-0.000000,9326.594869
83.810820,76.609550,444.123565,9104.533087
83.811146,0.000000,370.102971,8512.368333
83.811472,-229.828649,148.041188,9178.553681
83.811798,-229.828649,-0.000000,9030.512492
83.812124,153.219100,-0.000000,8438.347739
83.812450,0.000000,-296.082377,9104.533087
83.812776,-153.219100,-962.267725,9104.533087
83.813102,-689.485948,-444.123565,9696.697840
83.813428,-383.047749,-296.082377,9252.574275
83.813754,0.000000,-0.000000,9326.594869
83.814080,0.000000,296.082377,8956.491898
83.814406,229.828649,518.144159,8956.491898
83.814732,536.266849,1110.308913,8882.471304
83.815058,-153.219100,370.102971,9326.594869
83.815384,-306.438199,1110.308913,9400.615463
83.815710,0.000000,222.061783,9104.533087
83.816036,-229.828649,-0.000000,8586.388927
83.816362,-459.657299,-148.041188,9622.677246
83.816688,-612.876398,296.082377,9474.636058
83.817014,-229.828649,-370.102971,8956.491898
83.817340,-612.876398,-740.205942,9474.636058
83.817666,-1072.533697,-444.123565,9474.636058
83.817992,-919.314598,-0.000000,9178.553681
83.818318,-689.485948,-0.000000,9770.718434
83.818644,-1072.533697,666.185348,8586.388927
83.818970,-612.876398,370.102971,9474.636058
83.819296,-766.095498,518.144159,9104.533087
83.819622,-229.828649,222.061783,8512.368333
83.819948,-383.047749,-74.020594,9252.574275
83.820274,-689.485948,-0.000000,8956.491898
83.820600,-536.266849,-0.000000,9252.574275
83.820926,-459.657299,-74.020594,8882.471304
83.821252,-459.657299,-148.041188,8882.471304
83.821578,-995.924147,148.041188,9178.553681
83.821904,-612.876398,-0.000000,9178.553681
83.822230,-612.876398,888.247130,9030.512492
83.822556,-842.705048,370.102971,9252.574275
83.822882,-1072.533697,296.082377,9326.594869
83.823208,-995.924147,370.102971,9178.553681
83.823534,-842.705048,222.061783,9400.615463
83.823860,-689.485948,-0.000000,9326.594869
83.824186,-459.657299,-0.000000,9104.533087
83.824512,-459.657299,-222.061783,9400.615463
83.824838,-153.219100,-74.020594,9400.615463
83.825164,-689.485948,-222.061783,8956.491898
83.825490,-383.047749,-74.020594,9178.553681
83.825816,-306.438199,-0.000000,9104.533087
83.826142,0.000000,148.041188,9178.553681
83.826468,842.705048,-0.000000,9696.697840
83.826794,-383.047749,-0.000000,9030.512492
83.827120,0.000000,-148.041188,9104.533087
83.827446,-229.828649,370.102971,9030.512492
83.827772,0.000000,296.082377,8956.491898
83.828098,76.609550,370.102971,9104.533087
83.828424,306.438199,222.061783,9030.512492
83.828750,153.219100,-0.000000,9252.574275
83.829076,0.000000,148.041188,9400.615463
83.829402,76.609550,-296.082377,8882.471304
83.829728,-153.219100,148.041188,9030.512492
83.830054,-536.266849,-0.000000,9104.533087
83.830380,-689.485948,-0.000000,9326.594869
83.830706,-766.095498,-222.061783,9104.533087
83.831032,-995.924147,-0.000000,9622.677246
83.831358,-919.314598,-296.082377,9770.718434
83.831684,-1225.752797,-370.102971,9696.697840
83.832010,-842.705048,-0.000000,9178.553681
83.832336,-689.485948,296.082377,9030.512492
83.832662,-536.266849,-0.000000,9326.594869
83.832988,0.000000,148.041188,8808.450710
83.833314,-612.876398,444.123565,8734.430116
83.833640,153.219100,-148.041188,8956.491898
83.833966,-689.485948,-148.041188,9252.574275
83.834292,-306.438199,148.041188,9030.512492
83.834618,-689.485948,296.082377,8808.450710
83.834944,-1149.143247,148.041188,9252.574275
83.835270,-1378.971896,-222.061783,9474.636058
83.835596,-1455.581446,-222.061783,9622.677246
83.835922,-1225.752797,-666.185348,9252.574275
83.836248,-1072.533697,-370.102971,9474.636058
83.836574,-1302.362347,-148.041188,9104.533087
83.836900,-1149.143247,-0.000000,9252.574275
83.837226,-995.924147,370.102971,9400.615463
83.837551,-995.924147,-0.000000,9030.512492
83.837877,-1225.752797,-74.020594,9252.574275
83.838203,-689.485948,-518.144159,8882.471304
83.838529,-1378.971896,-0.000000,8882.471304
83.838855,-689.485948,296.082377,8808.450710
83.839181,-612.876398,222.061783,8882.471304
83.839507,-919.314598,-0.000000,9104.533087
83.839833,-689.485948,222.061783,9178.553681
83.840159,-689.485948,-222.061783,9474.636058
83.840485,-919.314598,-0.000000,9326.594869
83.840811,-1149.143247,444.123565,9770.718434
83.841137,-689.485948,-148.041188,9474.636058
83.841463,-229.828649,222.061783,9400.615463
83.841789,0.000000,222.061783,8956.491898
83.842115,0.000000,148.041188,9104.533087
83.842441,229.828649,370.102971,9770.718434
83.842767,153.219100,444.123565,9178.553681
83.843093,536.266849,-0.000000,8956.491898
83.843419,536.266849,-0.000000,9326.594869
83.843745,0.000000,-0.000000,9178.553681
83.844071,153.219100,-0.000000,8956.491898
83.844397,153.219100,-0.000000,9030.512492
83.844723,383.047749,-0.000000,9178.553681
83.845049,459.657299,-74.020594,9326.594869
83.845375,153.219100,296.082377,9400.615463
83.845701,536.266849,-0.000000,9178.553681
83.846027,306.438199,-0.000000,9178.553681
83.846353,0.000000,-74.020594,9400.615463
83.846679,153.219100,-0.000000,9178.553681
83.847005,383.047749,222.061783,9104.533087
83.847331,-229.828649,296.082377,9400.615463
83.847657,0.000000,814.226536,9474.636058
83.847983,0.000000,-0.000000,9474.636058
83.848309,-229.828649,-0.000000,9178.553681
83.848635,-536.266849,222.061783,9104.533087
83.848961,-612.876398,296.082377,9178.553681
83.849287,-842.705048,370.102971,9178.553681
83.849613,-842.705048,444.123565,9104.533087
83.849939,-766.095498,-0.000000,9474.636058
83.850265,-1225.752797,-0.000000,9104.533087
83.850591,-1532.190996,-74.020594,9252.574275
83.850917,-1455.581446,-74.020594,9252.574275
83.851243,-1762.019645,-222.061783,9326.594869
83.851569,-1608.800546,-222.061783,9252.574275
83.851895,-1608.800546,-296.082377,9474.636058
83.852221,-1302.362347,-148.041188,9474.636058
83.852547,-995.924147,-444.123565,9622.677246
83.852873,-1608.800546,-148.041188,9104.533087
83.853199,-1072.533697,-0.000000,9104.533087
83.853525,-919.314598,-0.000000,9252.574275
83.853851,-689.485948,296.082377,9104.533087
83.854177,-306.438199,-0.000000,8956.491898
83.854503,-459.657299,-148.041188,9178.553681
83.854829,0.000000,-0.000000,9178.553681
83.855155,153.219100,-0.000000,8660.409521
83.855481,306.438199,-0.000000,8956.491898
83.855807,0.000000,-0.000000,9252.574275
83.856133,306.438199,-74.020594,9252.574275
83.856459,689.485948,-518.144159,9178.553681
83.856785,383.047749,-74.020594,9252.574275
83.857111,766.095498,-74.020594,9400.615463
83.857437,689.485948,-0.000000,9326.594869
83.857763,919.314598,592.164754,9400.615463
83.858089,919.314598,444.123565,9104.533087
83.858415,842.705048,370.102971,9252.574275
83.858741,612.876398,148.041188,9326.594869
83.859067,1378.971896,-0.000000,9252.574275
83.859393,919.314598,-0.000000,8734.430116
83.859719,919.314598,-0.000000,9400.615463
83.860045,459.657299,-74.020594,8660.409521
83.860371,383.047749,-148.041188,9326.594869
83.860697,153.219100,-0.000000,9622.677246
83.861023,306.438199,444.123565,9030.512492
83.861349,383.047749,296.082377,9030.512492
83.861675,-612.876398,296.082377,9104.533087
83.862001,-229.828649,148.041188,9474.636058
83.862327,-306.438199,444.123565,9400.615463
83.862653,0.000000,592.164754,8808.450710
83.862979,-1072.533697,-0.000000,8956.491898
83.863305,-1072.533697,222.061783,9622.677246
83.863631,-459.657299,-0.000000,9178.553681
83.863957,-306.438199,-592.164754,9104.533087
83.864283,-306.438199,-666.185348,9696.697840
83.864609,-1149.143247,-592.164754,9474.636058
83.864935,-612.876398,-74.020594,9474.636058
83.865261,-383.047749,296.082377,8882.471304
83.865587,-459.657299,148.041188,9178.553681
83.865913,-153.219100,-0.000000,9326.594869
83.866239,0.000000,-0.000000,9252.574275
83.866565,153.219100,222.061783,8364.327145
83.866891,0.000000,222.061783,9030.512492
83.867217,76.609550,296.082377,8808.450710
83.867543,0.000000,222.061783,9030.512492
83.867869,306.438199,-0.000000,9178.553681
83.868195,229.828649,-0.000000,8956.491898
83.868521,0.000000,-148.041188,9548.656652
83.868847,229.828649,-74.020594,9252.574275
83.869173,76.609550,-0.000000,9474.636058
83.869499,459.657299,222.061783,9104.533087
83.869825,689.485948,-0.000000,9326.594869
83.870151,459.657299,-0.000000,9400.615463
83.870477,995.924147,-370.102971,9770.718434
83.870803,766.095498,-148.041188,9474.636058
83.871129,1225.752797,-0.000000,9252.574275
83.871455,1532.190996,-0.000000,9252.574275
83.871781,1225.752797,148.041188,9030.512492
83.872107,1302.362347,296.082377,8734.430116
83.872433,1378.971896,296.082377,8882.471304
83.872759,1608.800546,296.082377,9030.512492
83.873085,1685.410096,-0.000000,9030.512492
83.873411,1455.581446,370.102971,9400.615463
83.873737,1149.143247,370.102971,9178.553681
83.874063,919.314598,296.082377,9178.553681
83.874388,689.485948,-0.000000,9326.594869
83.874714,536.266849,296.082377,9252.574275
83.875040,536.266849,-0.000000,9326.594869
83.875366,229.828649,-0.000000,9474.636058
83.875692,0.000000,-148.041188,9474.636058
83.876018,-229.828649,-222.061783,9252.574275
83.876344,-306.438199,-0.000000,9548.656652
83.876670,-612.876398,-148.041188,9326.594869
83.876996,-612.876398,-222.061783,9252.574275
83.877322,-536.266849,-0.000000,9400.615463
83.877648,-536.266849,296.082377,9622.677246
83.877974,306.438199,-0.000000,9548.656652
83.878300,0.000000,-0.000000,9178.553681
83.878626,153.219100,222.061783,9030.512492
83.878952,306.438199,370.102971,9030.512492
83.879278,153.219100,296.082377,8882.471304
83.879604,536.266849,370.102971,8734.430116
83.879930,689.485948,518.144159,9104.533087
83.880256,306.438199,-148.041188,9252.574275
83.880582,306.438199,-0.000000,9326.594869
83.880908,153.219100,-0.000000,9030.512492
83.881234,153.219100,-0.000000,9326.594869
83.881560,0.000000,-148.041188,9326.594869
83.881886,-153.219100,-0.000000,9622.677246
83.882212,-536.266849,222.061783,9474.636058
83.882538,229.828649,-222.061783,9178.553681
83.882864,153.219100,296.082377,9696.697840
83.883190,536.266849,-222.061783,8882.471304
83.883516,536.266849,-0.000000,9252.574275
83.883842,919.314598,296.082377,9104.533087
83.884168,1149.143247,-0.000000,8808.450710
83.884494,1149.143247,-370.102971,8956.491898
83.884820,1378.971896,-148.041188,9252.574275
83.885146,919.314598,296.082377,9400.615463
83.885472,1225.752797,-0.000000,9030.512492
83.885798,919.314598,148.041188,8734.430116
83.886124,842.705048,296.082377,9030.512492
83.886450,766.095498,222.061783,9104.533087
83.886776,536.266849,222.061783,9178.553681
83.887102,536.266849,-0.000000,9104.533087
83.887428,842.705048,370.102971,9178.553681
83.887754,0.000000,296.082377,9474.636058
83.888080,383.047749,-74.020594,9474.636058
83.888406,306.438199,-148.041188,9474.636058
83.888732,76.609550,-222.061783,9474.636058
83.889058,459.657299,-370.102971,9400.615463
83.889384,0.000000,-74.020594,9400.615463
83.889710,153.219100,-0.000000,9178.553681
83.890036,383.047749,444.123565,9474.636058
83.890362,306.438199,222.061783,9104.533087
83.890688,229.828649,370.102971,8882.471304
83.891014,459.657299,296.082377,8734.430116
83.891340,306.438199,444.123565,8808.450710
83.891666,153.219100,74.020594,9178.553681
83.891992,-153.219100,-0.000000,8882.471304
83.892318,-536.266849,-222.061783,9252.574275
83.892644,-229.828649,-222.061783,9104.533087
83.892970,-306.438199,-222.061783,9326.594869
83.893296,-919.314598,-222.061783,9326.594869
83.893622,-995.924147,-74.020594,9400.615463
83.893948,-689.485948,-0.000000,9548.656652
83.894274,-919.314598,-148.041188,9326.594869
83.894600,-612.876398,-370.102971,9622.677246
83.894926,-842.705048,-0.000000,9474.636058
83.895252,0.000000,-0.000000,9400.615463
83.895578,0.000000,666.185348,8956.491898
83.895904,153.219100,222.061783,8734.430116
83.896230,612.876398,-0.000000,8734.430116
83.896556,612.876398,-148.041188,8882.471304
83.896882,459.657299,-0.000000,9030.512492
83.897208,459.657299,-0.000000,9178.553681
83.897534,612.876398,-0.000000,9252.574275
83.897860,383.047749,370.102971,8660.409521
83.898186,612.876398,296.082377,9326.594869
83.898512,153.219100,-0.000000,9178.553681
83.898838,-153.219100,148.041188,9622.677246
83.899164,153.219100,-222.061783,10214.842000
83.899490,229.828649,-444.123565,9178.553681
83.899816,306.438199,148.041188,9474.636058
83.900142,153.219100,-0.000000,9474.636058
83.900468,689.485948,222.061783,9400.615463
83.900794,536.266849,-0.000000,8882.471304
83.901120,1149.143247,222.061783,9474.636058
83.901446,1532.190996,-74.020594,9474.636058
83.901772,1302.362347,-0.000000,9400.615463
83.902098,1225.752797,-0.000000,8364.327145
83.902424,1149.143247,296.082377,8660.409521
83.902750,689.485948,148.041188,9992.780217
83.903076,995.924147,740.205942,8956.491898
83.903402,995.924147,1036.288319,8808.450710
83.903728,766.095498,-222.061783,9326.594869
83.904054,919.314598,-666.185348,9326.594869
83.904380,459.657299,518.144159,9548.656652
83.904706,689.485948,592.164754,9252.574275
83.905032,229.828649,592.164754,8734.430116
83.905358,383.047749,444.123565,9474.636058
83.905684,76.609550,-296.082377,9474.636058
83.906010,76.609550,-814.226536,9326.594869
83.906336,76.609550,-1110.308913,9326.594869
83.906662,-229.828649,-666.185348,9474.636058
83.906988,-383.047749,296.082377,9030.512492
83.907314,0.000000,296.082377,9252.574275
83.907640,0.000000,518.144159,9030.512492
83.907966,0.000000,666.185348,8882.471304
83.908292,76.609550,148.041188,9622.677246
83.908618,-459.657299,444.123565,8882.471304
83.908944,306.438199,-0.000000,9030.512492
83.909270,0.000000,-0.000000,9104.533087
83.909596,-383.047749,-0.000000,8882.471304
83.909922,-306.438199,-444.123565,9844.739029
83.910248,0.000000,-370.102971,9326.594869
83.910574,0.000000,-222.061783,9104.533087
83.910900,-306.438199,-74.020594,9918.759623
83.911225,0.000000,-74.020594,8956.491898
83.911551,0.000000,444.123565,8956.491898
83.911877,153.219100,296.082377,8956.491898
83.912203,0.000000,592.164754,8734.430116
83.912529,306.438199,518.144159,8808.450710
83.912855,153.219100,370.102971,8586.388927
83.913181,536.266849,222.061783,9030.512492
83.913507,766.095498,-666.185348,9844.739029
83.913833,0.000000,-370.102971,9030.512492
83.914159,0.000000,-222.061783,9178.553681
83.914485,76.609550,-518.144159,9992.780217
83.914811,0.000000,-222.061783,9178.553681
83.915137,383.047749,-0.000000,9770.718434
83.915463,919.314598,-0.000000,9252.574275
83.915789,0.000000,-0.000000,9400.615463
83.916115,612.876398,296.082377,9844.739029
83.916441,459.657299,888.247130,8586.388927
83.916767,1225.752797,962.267725,8586.388927
83.917092,842.705048,814.226536,9104.533087
83.917418,1225.752797,444.123565,8882.471304
83.917744,1302.362347,-222.061783,9770.718434
83.918070,842.705048,-296.082377,8808.450710
83.918396,919.314598,-888.247130,8882.471304
83.918722,536.266849,-222.061783,9474.636058
83.919048,689.485948,-74.020594,9400.615463
83.919374,306.438199,-0.000000,9178.553681
83.919700,459.657299,-0.000000,8882.471304
83.920026,-306.438199,148.041188,9474.636058
83.920351,612.876398,370.102971,9326.594869
83.920677,689.485948,740.205942,8956.491898
83.921003,689.485948,888.247130,8734.430116
83.921329,612.876398,444.123565,9252.574275
83.921655,919.314598,222.061783,9104.533087
83.921981,919.314598,-0.000000,9104.533087
83.922307,612.876398,-296.082377,9622.677246
83.922633,766.095498,-222.061783,9030.512492
83.922959,919.314598,-0.000000,9770.718434
83.923284,536.266849,-148.041188,9326.594869
83.923610,0.000000,-0.000000,9030.512492
83.923936,0.000000,-0.000000,9474.636058
83.924262,-459.657299,222.061783,9474.636058
83.924588,306.438199,1036.288319,9252.574275
83.924914,0.000000,592.164754,8586.388927
83.925240,229.828649,518.144159,8956.491898
83.925566,153.219100,666.185348,9178.553681
83.925892,0.000000,-0.000000,8956.491898
83.926218,459.657299,-0.000000,8882.471304
83.926543,229.828649,-370.102971,9030.512492
83.926869,-229.828649,-666.185348,9622.677246
83.927195,153.219100,-370.102971,8808.450710
83.927521,-612.876398,-370.102971,9474.636058
83.927847,-612.876398,-370.102971,9474.636058
83.928173,-612.876398,-296.082377,9474.636058
83.928499,-383.047749,-0.000000,9474.636058
83.928825,-306.438199,148.041188,9400.615463
83.929151,0.000000,592.164754,9104.533087
83.929477,229.828649,148.041188,9104.533087
83.929802,612.876398,444.123565,9030.512492
83.930128,766.095498,370.102971,8734.430116
83.930454,612.876398,444.123565,8808.450710
83.930780,612.876398,148.041188,8734.430116
83.931106,995.924147,-0.000000,8808.450710
83.931432,689.485948,-0.000000,9030.512492
83.931758,-536.266849,-0.000000,9252.574275
83.932084,76.609550,-222.061783,9622.677246
83.932410,-306.438199,-296.082377,9474.636058
83.932735,-306.438199,-74.020594,9474.636058
83.933061,-153.219100,-0.000000,9326.594869
83.933387,0.000000,222.061783,9400.615463
83.933713,383.047749,222.061783,9474.636058
83.934039,689.485948,-0.000000,9474.636058
83.934365,306.438199,222.061783,9252.574275
83.934691,919.314598,148.041188,8882.471304
83.935017,842.705048,-0.000000,8882.471304
83.935343,995.924147,-0.000000,9104.533087
83.935669,995.924147,-148.041188,9104.533087
83.935994,1072.533697,-148.041188,9104.533087
83.936320,842.705048,-370.102971,9252.574275
83.936646,766.095498,-74.020594,9622.677246
83.936972,1762.019645,148.041188,9696.697840
83.937298,1072.533697,666.185348,9252.574275
83.937624,689.485948,814.226536,8808.450710
83.937950,995.924147,518.144159,9030.512492
83.938276,536.266849,592.164754,9104.533087
83.938602,459.657299,296.082377,9178.553681
83.938927,612.876398,740.205942,9400.615463
83.939253,383.047749,-74.020594,9400.615463
83.939579,459.657299,-222.061783,9178.553681
83.939905,229.828649,-592.164754,9326.594869
83.940231,76.609550,-814.226536,9696.697840
83.940557,153.219100,-814.226536,9696.697840
83.940883,689.485948,-444.123565,9474.636058
83.941209,842.705048,-666.185348,9252.574275
83.941535,1302.362347,370.102971,9178.553681
83.941861,689.485948,370.102971,8882.471304
83.942186,1302.362347,740.205942,8808.450710
83.942512,1302.362347,592.164754,8734.430116
83.942838,1225.752797,740.205942,8734.430116
83.943164,1302.362347,666.185348,8660.409521
83.943490,1149.143247,-74.020594,8512.368333
83.943816,536.266849,-148.041188,9326.594869
83.944142,383.047749,-74.020594,9252.574275
83.944468,76.609550,-222.061783,9326.594869
83.944794,-383.047749,-222.061783,9474.636058
83.945120,-459.657299,-74.020594,9474.636058
83.945445,-1608.800546,-148.041188,9696.697840
83.945771,-919.314598,-370.102971,9400.615463
83.946097,-1378.971896,-222.061783,9844.739029
83.946423,-1149.143247,-518.144159,9400.615463
83.946749,-919.314598,-296.082377,9252.574275
83.947075,-919.314598,-0.000000,9178.553681
83.947401,-536.266849,148.041188,8734.430116
83.947727,0.000000,148.041188,8808.450710
83.948053,-153.219100,-0.000000,8512.368333
83.948378,0.000000,-222.061783,8882.471304
83.948704,0.000000,148.041188,8882.471304
83.949030,0.000000,-0.000000,8808.450710
83.949356,0.000000,-0.000000,9178.553681
83.949682,-383.047749,-0.000000,9326.594869
83.950008,-459.657299,-0.000000,9400.615463
83.950334,-383.047749,-222.061783,9622.677246
83.950660,-153.219100,-222.061783,9622.677246
83.950986,-842.705048,-0.000000,9474.636058
83.951312,0.000000,-0.000000,9178.553681
83.951637,536.266849,-0.000000,9252.574275
83.951963,459.657299,148.041188,9178.553681
83.952289,153.219100,-222.061783,9252.574275
83.952615,612.876398,-0.000000,9178.553681
83.952941,842.705048,444.123565,9252.574275
83.953267,1225.752797,-74.020594,9696.697840
83.953593,1455.581446,-0.000000,9104.533087
83.953919,1225.752797,-0.000000,9104.533087
83.954245,1072.533697,-0.000000,9474.636058
83.954570,1532.190996,-0.000000,9178.553681
83.954896,1685.410096,-0.000000,9030.512492
83.955222,1455.581446,518.144159,8290.306550
83.955548,1455.581446,296.082377,8808.450710
83.955874,919.314598,518.144159,9252.574275
83.956200,766.095498,814.226536,9104.533087
83.956526,612.876398,666.185348,8882.471304
83.956852,229.828649,592.164754,9104.533087
83.957178,153.219100,370.102971,9474.636058
83.957504,-1225.752797,222.061783,9548.656652
83.957829,-612.876398,-148.041188,9400.615463
83.958155,-1455.581446,-148.041188,9326.594869
83.958481,-1378.971896,-0.000000,9548.656652
83.958807,-1225.752797,-0.000000,9400.615463
83.959133,-1455.581446,370.102971,8956.491898
83.959459,-1149.143247,148.041188,8956.491898
83.959785,-2221.676944,-0.000000,8882.471304
83.960111,-1455.581446,74.020594,9178.553681
83.960437,-1378.971896,222.061783,9252.574275
83.960763,-1838.629195,-0.000000,9030.512492
83.961088,-1991.848295,-74.020594,9030.512492
83.961414,-1838.629195,-148.041188,9326.594869
83.961740,-2221.676944,-296.082377,9326.594869
83.962066,-2068.457845,-148.041188,9252.574275
83.962392,-1685.410096,-814.226536,9178.553681
83.962718,-2145.067394,-592.164754,9918.759623
83.963044,-1762.019645,-296.082377,9622.677246
83.963370,-1608.800546,-74.020594,9326.594869
83.963696,-1225.752797,-296.082377,9326.594869
83.964021,-1378.971896,-814.226536,9844.739029
83.964347,-1149.143247,-592.164754,9474.636058
83.964673,0.000000,-74.020594,9252.574275
83.964999,76.609550,-148.041188,8586.388927
83.965325,689.485948,-0.000000,9178.553681
83.965651,842.705048,296.082377,8882.471304
83.965977,1455.581446,518.144159,8438.347739
83.966303,1225.752797,592.164754,8438.347739
83.966629,1225.752797,-0.000000,8586.388927
83.966955,1838.629195,-0.000000,9030.512492
83.967280,1532.190996,-74.020594,8512.368333
83.967606,1225.752797,-0.000000,9030.512492
83.967932,995.924147,-74.020594,9178.553681
83.968258,612.876398,-296.082377,9696.697840
83.968584,766.095498,-222.061783,9326.594869
83.968910,766.095498,-222.061783,9252.574275
83.969236,306.438199,-0.000000,9326.594869
83.969562,612.876398,222.061783,8660.409521
83.969888,76.609550,444.123565,9030.512492
83.970213,306.438199,296.082377,9030.512492
83.970539,0.000000,370.102971,9104.533087
83.970865,153.219100,370.102971,8882.471304
83.971191,536.266849,222.061783,9178.553681
83.971517,229.828649,-74.020594,8882.471304
83.971843,0.000000,-148.041188,8808.450710
83.972169,-536.266849,370.102971,9400.615463
83.972495,-689.485948,-0.000000,9474.636058
83.972821,-919.314598,-0.000000,9474.636058
83.973147,-1225.752797,-0.000000,9252.574275
83.973472,-1532.190996,148.041188,9400.615463
83.973798,-1455.581446,-0.000000,9400.615463
83.974124,-1378.971896,-0.000000,9474.636058
83.974450,-1838.629195,222.061783,9622.677246
83.974776,-2068.457845,-0.000000,9326.594869
83.975102,-1915.238745,-74.020594,9030.512492
83.975428,-1915.238745,370.102971,9474.636058
83.975754,-1762.019645,222.061783,9474.636058
83.976080,-1302.362347,296.082377,9252.574275
83.976406,-2068.457845,-222.061783,9400.615463
83.976731,-1608.800546,-296.082377,9696.697840
83.977057,-1762.019645,-74.020594,9474.636058
83.977383,-1455.581446,222.061783,9178.553681
83.977709,-1072.533697,370.102971,9252.574275
83.978035,-995.924147,370.102971,8956.491898
83.978361,-612.876398,296.082377,9326.594869
83.978687,-612.876398,-0.000000,9474.636058
83.979013,-383.047749,-444.123565,9400.615463
83.979339,-842.705048,-74.020594,9030.512492
83.979664,-459.657299,296.082377,8734.430116
83.979990,-383.047749,148.041188,9178.553681
83.980316,-612.876398,296.082377,9252.574275
83.980642,0.000000,-0.000000,9030.512492
83.980968,0.000000,-0.000000,9474.636058
83.981294,76.609550,-222.061783,9030.512492
83.981620,229.828649,-74.020594,8956.491898
83.981946,76.609550,-0.000000,9030.512492
83.982272,306.438199,-0.000000,9104.533087
83.982598,153.219100,-0.000000,9104.533087
83.982923,459.657299,-148.041188,9030.512492
83.983249,0.000000,-74.020594,9252.574275
83.983575,536.266849,-0.000000,9178.553681
83.983901,612.876398,-0.000000,9104.533087
83.984227,383.047749,222.061783,9104.533087
83.984553,0.000000,370.102971,8882.471304
83.984879,306.438199,592.164754,9030.512492
83.985205,153.219100,-0.000000,8734.430116
83.985531,76.609550,444.123565,9252.574275
83.985856,0.000000,222.061783,9104.533087
83.986182,0.000000,-0.000000,9326.594869
83.986508,-306.438199,-148.041188,9474.636058
83.986834,-459.657299,-0.000000,9400.615463
83.987160,-229.828649,-0.000000,9326.594869
83.987486,0.000000,-0.000000,9474.636058
83.987812,-306.438199,-0.000000,9548.656652
83.988138,-459.657299,-0.000000,9178.553681
83.988464,-306.438199,370.102971,8882.471304
83.988790,-536.266849,888.247130,8808.450710
83.989115,-766.095498,370.102971,8956.491898
83.989441,-919.314598,370.102971,8882.471304
83.989767,-689.485948,-148.041188,8808.450710
83.990093,-1149.143247,-0.000000,9474.636058
83.990419,-1608.800546,-518.144159,9252.574275
83.990745,-1608.800546,-444.123565,9400.615463
83.991071,-1608.800546,-370.102971,9548.656652
83.991397,-1685.410096,-518.144159,9844.739029
83.991723,-1915.238745,-370.102971,9696.697840
83.992049,-1225.752797,-370.102971,9622.677246
83.992374,-919.314598,-74.020594,9474.636058
83.992700,-1225.752797,370.102971,9474.636058
83.993026,-229.828649,592.164754,9104.533087
83.993352,-766.095498,444.123565,8808.450710
83.993678,-229.828649,592.164754,8586.388927
83.994004,-459.657299,370.102971,8882.471304
83.994330,-229.828649,370.102971,8734.430116
83.994656,0.000000,444.123565,9178.553681
83.994982,-766.095498,-74.020594,9178.553681
83.995307,-459.657299,-222.061783,9104.533087
83.995633,-306.438199,-0.000000,9696.697840
83.995959,-383.047749,-0.000000,9252.574275
83.996285,-536.266849,-0.000000,9326.594869
83.996611,-306.438199,-0.000000,9992.780217
83.996937,-995.924147,-0.000000,8808.450710
83.997263,0.000000,-74.020594,9400.615463
83.997589,-536.266849,222.061783,9474.636058
83.997915,0.000000,-74.020594,9326.594869
83.998241,153.219100,222.061783,8660.409521
83.998566,0.000000,222.061783,9030.512492
83.998892,0.000000,-0.000000,9252.574275
83.999218,536.266849,-148.041188,9548.656652
83.999544,536.266849,-0.000000,9030.512492
83.999870,459.657299,-222.061783,8882.471304
84.000196,153.219100,-148.041188,9622.677246
84.000522,153.219100,592.164754,9104.533087
84.000848,383.047749,592.164754,8882.471304
84.001174,76.609550,222.061783,8734.430116
84.001499,-153.219100,-444.123565,9030.512492
84.001825,-383.047749,-148.041188,9770.718434
84.002151,0.000000,296.082377,9252.574275
84.002477,-612.876398,740.205942,9030.512492
84.002803,-229.828649,370.102971,9030.512492
84.003129,-459.657299,148.041188,9252.574275
84.003455,-612.876398,-0.000000,9252.574275
84.003781,-536.266849,-444.123565,9400.615463
84.004107,-842.705048,-518.144159,9178.553681
84.004433,-842.705048,-296.082377,9400.615463
84.004758,-459.657299,-222.061783,9104.533087
84.005084,-1072.533697,-222.061783,9104.533087
84.005410,-995.924147,-74.020594,9400.615463
84.005736,-1072.533697,-0.000000,9252.574275
84.006062,-612.876398,-0.000000,9104.533087
84.006388,-536.266849,-0.000000,9030.512492
84.006714,-306.438199,148.041188,9178.553681
84.007040,-229.828649,-74.020594,8808.450710
84.007366,-459.657299,-0.000000,9104.533087
84.007692,-229.828649,-296.082377,8734.430116
84.008017,-536.266849,-0.000000,9178.553681
84.008343,-306.438199,148.041188,9104.533087
84.008669,0.000000,370.102971,9252.574275
84.008995,-383.047749,-296.082377,9104.533087
84.009321,0.000000,-296.082377,9030.512492
84.009647,-689.485948,-370.102971,8882.471304
84.009973,-689.485948,-148.041188,9474.636058
84.010299,76.609550,296.082377,9400.615463
84.010625,383.047749,296.082377,8808.450710
84.010950,0.000000,296.082377,9178.553681
84.011276,0.000000,-0.000000,9622.677246
84.011602,76.609550,-0.000000,9918.759623
84.011928,153.219100,296.082377,8808.450710
84.012254,0.000000,370.102971,8364.327145
84.012580,0.000000,-0.000000,9178.553681
84.012906,0.000000,-0.000000,9104.533087
84.013232,0.000000,370.102971,9178.553681
84.013558,-459.657299,-222.061783,9326.594869
84.013884,-536.266849,-666.185348,9104.533087
84.014209,0.000000,-148.041188,9474.636058
84.014535,-306.438199,148.041188,9104.533087
84.014861,-383.047749,296.082377,9030.512492
84.015187,-612.876398,-0.000000,9548.656652
84.015513,-612.876398,-148.041188,8882.471304
84.015839,0.000000,148.041188,9104.533087
84.016165,-306.438199,222.061783,8882.471304
84.016491,-459.657299,370.102971,9104.533087
84.016817,-612.876398,370.102971,9252.574275
84.017143,-536.266849,-0.000000,8882.471304
84.017469,-1072.533697,-0.000000,8956.491898
84.017795,-842.705048,-74.020594,9400.615463
84.018121,-842.705048,-74.020594,9548.656652
84.018447,-612.876398,592.164754,9326.594869
84.018773,-383.047749,-0.000000,9178.553681
84.019099,-536.266849,-0.000000,9326.594869
84.019425,-842.705048,-0.000000,9326.594869
84.019751,-766.095498,-0.000000,9474.636058
84.020077,-612.876398,-0.000000,9104.533087
84.020403,-766.095498,370.102971,9030.512492
84.020729,-76.609550,-74.020594,9178.553681
84.021055,0.000000,-0.000000,8956.491898
84.021381,-383.047749,148.041188,9252.574275
84.021707,-766.095498,-0.000000,9178.553681
84.022033,-612.876398,-0.000000,9104.533087
84.022359,-612.876398,-0.000000,9104.533087
84.022685,-536.266849,-0.000000,9252.574275
84.023011,-459.657299,-0.000000,9326.594869
84.023337,-919.314598,-0.000000,9326.594869
84.023663,-919.314598,-444.123565,9326.594869
84.023989,-995.924147,-0.000000,9252.574275
84.024315,-536.266849,-0.000000,9104.533087
84.024641,-536.266849,-0.000000,9030.512492
84.024967,-766.095498,148.041188,9104.533087
84.025293,-612.876398,-148.041188,9104.533087
84.025619,-1455.581446,-0.000000,9030.512492
84.025945,-229.828649,-0.000000,9400.615463
84.026271,-766.095498,-74.020594,9474.636058
84.026597,-459.657299,148.041188,9104.533087
84.026923,-229.828649,296.082377,9030.512492
84.027248,-229.828649,148.041188,9326.594869
84.027574,-229.828649,222.061783,9622.677246
84.027900,-536.266849,296.082377,9252.574275
84.028226,-995.924147,444.123565,9030.512492
84.028552,-153.219100,-74.020594,9178.553681
84.028878,-612.876398,222.061783,9252.574275
84.029204,-306.438199,148.041188,9622.677246
84.029530,-536.266849,-0.000000,8808.450710
84.029856,-153.219100,-74.020594,9252.574275
84.030182,-612.876398,-222.061783,9474.636058
84.030508,0.000000,296.082377,9178.553681
84.030834,-383.047749,296.082377,9104.533087
84.031160,-383.047749,148.041188,9104.533087
84.031486,-842.705048,222.061783,8882.471304
84.031812,-383.047749,444.123565,9326.594869
84.032138,-459.657299,444.123565,8882.471304
84.032464,-612.876398,74.020594,9030.512492
84.032790,-536.266849,-74.020594,8512.368333
84.033116,-842.705048,-0.000000,9104.533087
84.033442,-1532.190996,-148.041188,9326.594869
84.033768,-919.314598,-0.000000,9548.656652
84.034094,-1149.143247,-222.061783,9326.594869
84.034420,-919.314598,148.041188,9474.636058
84.034746,-536.266849,-0.000000,9326.594869
84.035072,-612.876398,222.061783,9474.636058
84.035398,-383.047749,592.164754,9252.574275
84.035724,-153.219100,222.061783,9252.574275
84.036050,-153.219100,222.061783,8660.409521
84.036376,0.000000,296.082377,9104.533087
84.036702,229.828649,666.185348,8882.471304
84.037028,536.266849,666.185348,8734.430116
84.037354,306.438199,-74.020594,9326.594869
84.037680,0.000000,-0.000000,9104.533087
84.038006,0.000000,-518.144159,9178.553681
84.038332,0.000000,-74.020594,9400.615463
84.038658,-229.828649,-0.000000,9030.512492
84.038984,-229.828649,-0.000000,9178.553681
84.039310,-383.047749,-0.000000,9770.718434
84.039636,-459.657299,-74.020594,9474.636058
84.039962,-153.219100,-666.185348,9474.636058
84.040288,-306.438199,-222.061783,9400.615463
84.040614,76.609550,-0.000000,8956.491898
84.040940,0.000000,-0.000000,9178.553681
84.041266,76.609550,-0.000000,8956.491898
84.041592,0.000000,-0.000000,8808.450710
84.041918,0.000000,-0.000000,8660.409521
84.042244,0.000000,-0.000000,8956.491898
84.042570,306.438199,222.061783,9030.512492
84.042896,0.000000,518.144159,8586.388927
84.043222,-153.219100,592.164754,8882.471304
84.043548,-842.705048,148.041188,9474.636058
84.043874,-689.485948,-148.041188,9326.594869
84.044200,-536.266849,-222.061783,9252.574275
84.044526,-842.705048,-0.000000,9548.656652
84.044852,-766.095498,-222.061783,9770.718434
84.045178,-1072.533697,-0.000000,9400.615463
84.045504,-1149.143247,-148.041188,9178.553681
84.045830,-1302.362347,-148.041188,9178.553681
84.046156,-1455.581446,-148.041188,9326.594869
84.046482,-995.924147,-74.020594,9178.553681
84.046808,-536.266849,222.061783,9104.533087
84.047134,-919.314598,-0.000000,8734.430116
84.047459,-536.266849,-0.000000,9178.553681
84.047785,-383.047749,-74.020594,9252.574275
84.048111,0.000000,-0.000000,9178.553681
84.048437,0.000000,-222.061783,8956.491898
84.048763,0.000000,-74.020594,9400.615463
84.049089,383.047749,-148.041188,9474.636058
84.049415,536.266849,-74.020594,8882.471304
84.049741,612.876398,-148.041188,8956.491898
84.050067,612.876398,296.082377,9326.594869
84.050393,536.266849,-0.000000,9178.553681
84.050719,536.266849,296.082377,9104.533087
84.051045,689.485948,148.041188,8808.450710
84.051371,689.485948,518.144159,9474.636058
84.051697,919.314598,-0.000000,9400.615463
84.052023,919.314598,444.123565,9178.553681
84.052349,842.705048,148.041188,9104.533087
84.052675,919.314598,-0.000000,9326.594869
84.053001,612.876398,-0.000000,9104.533087
84.053327,689.485948,148.041188,8808.450710
84.053653,459.657299,-444.123565,9252.574275
84.053979,306.438199,-0.000000,8882.471304
84.054305,-459.657299,-148.041188,9548.656652
84.054631,-229.828649,-0.000000,8882.471304
84.054957,-229.828649,-74.020594,9252.574275
84.055283,-306.438199,-74.020594,9474.636058
84.055609,0.000000,148.041188,8808.450710
84.055935,153.219100,-0.000000,8882.471304
84.056261,-536.266849,-0.000000,9178.553681
84.056587,-383.047749,296.082377,9622.677246
84.056913,-229.828649,296.082377,8956.491898
84.057239,-383.047749,444.123565,9104.533087
84.057565,-919.314598,-0.000000,9326.594869
84.057891,-919.314598,-148.041188,9400.615463
84.058217,-919.314598,-0.000000,9104.533087
84.058543,-1072.533697,-666.185348,9178.553681
84.058869,-1149.143247,-222.061783,9474.636058
84.059195,-995.924147,-444.123565,9178.553681
84.059521,-1149.143247,-148.041188,9400.615463
84.059847,-842.705048,-0.000000,9400.615463
84.060173,-612.876398,-74.020594,9104.533087
84.060499,-229.828649,296.082377,9844.739029
84.060825,76.609550,-0.000000,8882.471304
84.061151,76.609550,-0.000000,8882.471304
84.061477,766.095498,296.082377,8882.471304
84.061803,536.266849,296.082377,8734.430116
84.062129,689.485948,518.144159,9030.512492
84.062455,689.485948,222.061783,9030.512492
84.062781,689.485948,740.205942,8512.368333
84.063107,842.705048,444.123565,8882.471304
84.063433,536.266849,666.185348,9252.574275
84.063759,919.314598,148.041188,9400.615463
84.064085,919.314598,-0.000000,9474.636058
84.064411,766.095498,-222.061783,9622.677246
84.064737,919.314598,-148.041188,9622.677246
84.065063,995.924147,-370.102971,9696.697840
84.065389,153.219100,-0.000000,9548.656652
84.065715,1225.752797,-0.000000,9474.636058
84.066041,1072.533697,-0.000000,9474.636058
84.066367,1455.581446,296.082377,9030.512492
84.066693,1685.410096,740.205942,8882.471304
84.067019,1762.019645,592.164754,8882.471304
84.067344,1991.848295,518.144159,8808.450710
84.067670,1378.971896,148.041188,9104.533087
84.067996,1532.190996,-0.000000,9252.574275
84.068322,1225.752797,-0.000000,8882.471304
84.068648,689.485948,370.102971,8586.388927
84.068974,229.828649,148.041188,9030.512492
84.069300,153.219100,-0.000000,9252.574275
84.069626,-536.266849,-222.061783,9400.615463
84.069952,-536.266849,-296.082377,9178.553681
84.070278,-612.876398,-370.102971,9548.656652
84.070604,-689.485948,-666.185348,9548.656652
84.070930,-995.924147,-296.082377,9622.677246
84.071256,-919.314598,-222.061783,9474.636058
84.071582,-689.485948,-222.061783,9252.574275
84.071908,-766.095498,-148.041188,9326.594869
84.072234,-153.219100,222.061783,9548.656652
84.072560,0.000000,-0.000000,9104.533087
84.072886,76.609550,296.082377,9178.553681
84.073212,0.000000,370.102971,8512.368333
84.073538,383.047749,370.102971,8512.368333
84.073864,459.657299,370.102971,8438.347739
84.074190,383.047749,222.061783,8734.430116
84.074516,459.657299,-0.000000,8956.491898
84.074842,229.828649,-518.144159,9400.615463
84.075168,0.000000,-222.061783,9252.574275
84.075494,-153.219100,-148.041188,9622.677246
84.075820,-153.219100,-444.123565,9400.615463
84.076146,-383.047749,-444.123565,9696.697840
84.076472,-229.828649,-296.082377,9696.697840
84.076798,0.000000,-444.123565,9548.656652
84.077124,229.828649,148.041188,9326.594869
84.077450,459.657299,444.123565,9326.594869
84.077776,383.047749,148.041188,8882.471304
84.078102,995.924147,370.102971,8956.491898
84.078428,1378.971896,444.123565,8808.450710
84.078754,1302.362347,148.041188,8808.450710
84.079080,1072.533697,222.061783,9104.533087
84.079406,1455.581446,-74.020594,8808.450710
84.079732,1072.533697,222.061783,9252.574275
84.080058,1455.581446,-0.000000,9178.553681
84.080384,1302.362347,-0.000000,9104.533087
84.080710,995.924147,444.123565,9178.553681
84.081036,1149.143247,444.123565,9326.594869
84.081362,842.705048,296.082377,9326.594869
84.081688,229.828649,444.123565,9696.697840
84.082014,842.705048,370.102971,9474.636058
84.082340,383.047749,518.144159,9400.615463
84.082666,153.219100,148.041188,9548.656652
84.082992,76.609550,-0.000000,9400.615463
84.083318,0.000000,-222.061783,9474.636058
84.083644,0.000000,-0.000000,9400.615463
84.083970,842.705048,-296.082377,9474.636058
84.084296,153.219100,-370.102971,9178.553681
84.084622,153.219100,-148.041188,9252.574275
84.084948,153.219100,222.061783,9104.533087
84.085274,383.047749,296.082377,8956.491898
84.085600,229.828649,296.082377,8956.491898
84.085926,153.219100,666.185348,8882.471304
84.086252,0.000000,740.205942,9178.553681
84.086578,536.266849,148.041188,8882.471304
84.086904,459.657299,222.061783,8956.491898
84.087229,-459.657299,222.061783,9030.512492
84.087555,-229.828649,370.102971,9178.553681
84.087881,-689.485948,-0.000000,9104.533087
84.088207,-995.924147,-148.041188,9400.615463
84.088533,-459.657299,-592.164754,9696.697840
84.088859,-1762.019645,-444.123565,9474.636058
84.089185,-612.876398,-592.164754,9770.718434
84.089511,-1302.362347,-148.041188,9548.656652
84.089837,-919.314598,-74.020594,9104.533087
84.090163,-383.047749,-222.061783,9030.512492
84.090489,-153.219100,-222.061783,9030.512492
84.090815,229.828649,-148.041188,9030.512492
84.091141,689.485948,-370.102971,8734.430116
84.091467,842.705048,-0.000000,8290.306550
84.091793,1225.752797,222.061783,8290.306550
84.092119,1149.143247,148.041188,9030.512492
84.092445,842.705048,222.061783,8438.347739
84.092771,689.485948,370.102971,9104.533087
84.093097,689.485948,148.041188,9104.533087
84.093423,536.266849,-222.061783,9400.615463
84.093749,459.657299,-148.041188,9326.594869
84.094075,-536.266849,-296.082377,9696.697840
84.094401,0.000000,-296.082377,9770.718434
84.094727,306.438199,-74.020594,10140.821405
84.095053,306.438199,-0.000000,9474.636058
84.095379,1072.533697,-222.061783,9178.553681
84.095705,229.828649,-0.000000,9918.759623
84.096031,919.314598,444.123565,9474.636058
84.096357,1455.581446,814.226536,8438.347739
84.096683,1149.143247,370.102971,8512.368333
84.097009,919.314598,-0.000000,9104.533087
84.097335,842.705048,-0.000000,9326.594869
84.097661,1072.533697,148.041188,9178.553681
84.097987,1378.971896,-74.020594,8364.327145
84.098313,766.095498,370.102971,9400.615463
84.098639,689.485948,148.041188,9474.636058
84.098965,459.657299,1036.288319,8956.491898
84.099291,229.828649,592.164754,9400.615463
84.099617,0.000000,-0.000000,9770.718434
84.099943,-153.219100,-74.020594,9326.594869
84.100269,0.000000,-444.123565,9474.636058
84.100595,-229.828649,-0.000000,9178.553681
84.100921,-383.047749,-0.000000,9696.697840
84.101247,-459.657299,296.082377,10066.800811
84.101573,-229.828649,222.061783,9178.553681
84.101899,-459.657299,-74.020594,9178.553681
84.102225,-229.828649,-0.000000,9400.615463
84.102551,-306.438199,444.123565,9178.553681
84.102877,842.705048,962.267725,9030.512492
84.103203,459.657299,592.164754,8290.306550
84.103529,0.000000,666.185348,8438.347739
84.103855,0.000000,-74.020594,9622.677246
84.104181,0.000000,-666.185348,9178.553681
84.104507,-383.047749,-888.247130,8734.430116
84.104833,-536.266849,-1184.329507,9770.718434
84.105159,-612.876398,-444.123565,9326.594869
84.105485,-383.047749,-0.000000,9474.636058
84.105811,-612.876398,148.041188,9326.594869
84.106137,-689.485948,370.102971,8586.388927
84.106463,-306.438199,148.041188,9622.677246
84.106789,0.000000,148.041188,9622.677246
84.107114,153.219100,592.164754,8438.347739
84.107440,919.314598,296.082377,8808.450710
84.107766,612.876398,-0.000000,9104.533087
84.108092,0.000000,592.164754,9104.533087
84.108418,842.705048,-0.000000,8734.430116
84.108744,459.657299,-222.061783,8956.491898
84.109070,383.047749,-296.082377,9178.553681
84.109396,459.657299,-518.144159,9622.677246
84.109722,536.266849,-74.020594,8586.388927
84.110048,76.609550,-0.000000,8808.450710
84.110374,229.828649,-74.020594,9770.718434
84.110700,459.657299,222.061783,9400.615463
84.111026,689.485948,-148.041188,9474.636058
84.111352,612.876398,-0.000000,9178.553681
84.111678,842.705048,444.123565,9178.553681
84.112004,842.705048,222.061783,9548.656652
84.112330,995.924147,518.144159,9474.636058
84.112656,1302.362347,222.061783,8956.491898
84.112982,1302.362347,-0.000000,9326.594869
84.113308,919.314598,222.061783,9326.594869
84.113634,995.924147,222.061783,9104.533087
84.113960,1225.752797,370.102971,9104.533087
84.114286,995.924147,74.020594,9400.615463
84.114612,1225.752797,370.102971,9326.594869
84.114938,612.876398,370.102971,9696.697840
84.115264,459.657299,-0.000000,8512.368333
84.115590,0.000000,296.082377,8882.471304
84.115916,383.047749,-0.000000,9326.594869
84.116242,0.000000,-0.000000,9178.553681
84.116568,153.219100,-74.020594,9178.553681
84.116894,153.219100,-148.041188,9474.636058
84.117220,-229.828649,-370.102971,9252.574275
84.117546,76.609550,-518.144159,9622.677246
84.117872,0.000000,-222.061783,9326.594869
84.118197,153.219100,-148.041188,9326.594869
84.118523,-306.438199,-0.000000,9548.656652
84.118849,0.000000,-222.061783,9474.636058
84.119175,459.657299,296.082377,9252.574275
84.119501,153.219100,444.123565,8586.388927
84.119827,612.876398,370.102971,8660.409521
84.120153,229.828649,666.185348,8882.471304
84.120479,76.609550,518.144159,8734.430116
84.120805,306.438199,370.102971,8956.491898
84.121131,153.219100,-0.000000,8808.450710
84.121456,-229.828649,-74.020594,9326.594869
84.121782,-153.219100,-148.041188,9474.636058
84.122108,0.000000,-518.144159,9474.636058
84.122434,-459.657299,-222.061783,9622.677246
84.122760,-536.266849,-222.061783,9548.656652
84.123086,-459.657299,-0.000000,9326.594869
84.123412,0.000000,296.082377,9104.533087
84.123738,383.047749,518.144159,9030.512492
84.124064,612.876398,666.185348,9178.553681
84.124390,995.924147,-0.000000,9252.574275
84.124715,842.705048,-0.000000,8734.430116
84.125041,689.485948,-0.000000,8882.471304
84.125367,766.095498,-0.000000,9178.553681
84.125693,842.705048,-222.061783,9326.594869
84.126019,1149.143247,148.041188,9252.574275
84.126345,1072.533697,-148.041188,9548.656652
84.126671,1225.752797,-148.041188,9326.594869
84.126997,689.485948,-0.000000,9178.553681
84.127323,1072.533697,592.164754,9400.615463
84.127648,1072.533697,666.185348,9104.533087
84.127974,1072.533697,666.185348,8734.430116
84.128300,995.924147,592.164754,9178.553681
84.128626,1225.752797,518.144159,9178.553681
84.128952,612.876398,-0.000000,8956.491898
84.129278,842.705048,-74.020594,9104.533087
84.129604,689.485948,-0.000000,9326.594869
84.129930,842.705048,-296.082377,9252.574275
84.130256,766.095498,-444.123565,9770.718434
84.130582,842.705048,-666.185348,9474.636058
84.130907,612.876398,-444.123565,9400.615463
84.131233,766.095498,-148.041188,9178.553681
84.131559,306.438199,-0.000000,9474.636058
84.131885,1149.143247,444.123565,9178.553681
84.132211,1072.533697,814.226536,8734.430116
84.132537,1149.143247,592.164754,8808.450710
84.132863,766.095498,518.144159,8956.491898
84.133189,1072.533697,296.082377,8734.430116
84.133515,1302.362347,444.123565,8882.471304
84.133841,0.000000,222.061783,8956.491898
84.134166,153.219100,-0.000000,9178.553681
84.134492,-153.219100,-222.061783,9178.553681
84.134818,-536.266849,-296.082377,9696.697840
84.135144,-229.828649,-518.144159,9696.697840
84.135470,-689.485948,-148.041188,9400.615463
84.135796,-229.828649,-0.000000,9252.574275
84.136122,-919.314598,-148.041188,9252.574275
84.136448,-842.705048,-0.000000,9178.553681
84.136774,-689.485948,-0.000000,9326.594869
84.137100,-766.095498,-74.020594,9030.512492
84.137425,-842.705048,-0.000000,9400.615463
84.137751,-689.485948,296.082377,9030.512492
84.138077,-229.828649,-0.000000,8734.430116
84.138403,-153.219100,-74.020594,8882.471304
84.138729,-612.876398,-74.020594,8956.491898
84.139055,-689.485948,-148.041188,8882.471304
84.139381,-766.095498,-74.020594,9178.553681
84.139707,-383.047749,-74.020594,9326.594869
84.140033,-383.047749,444.123565,9252.574275
84.140359,-383.047749,-0.000000,9474.636058
84.140684,-306.438199,-74.020594,9474.636058
84.141010,-383.047749,-74.020594,9548.656652
84.141336,0.000000,-0.000000,9474.636058
84.141662,0.000000,-0.000000,9252.574275
84.141988,306.438199,-0.000000,9104.533087
84.142314,383.047749,-0.000000,9474.636058
84.142640,536.266849,-444.123565,9252.574275
84.142966,766.095498,-222.061783,9030.512492
84.143292,1608.800546,-0.000000,9326.594869
84.143618,1455.581446,-222.061783,9178.553681
84.143943,1915.238745,-0.000000,9252.574275
84.144269,1608.800546,370.102971,8956.491898
84.144595,1762.019645,148.041188,9326.594869
84.144921,2221.676944,444.123565,9252.574275
84.145247,1378.971896,888.247130,9030.512492
84.145573,2068.457845,814.226536,8808.450710
84.145899,1532.190996,740.205942,8660.409521
84.146225,995.924147,444.123565,8882.471304
84.146551,766.095498,370.102971,9326.594869
84.146877,383.047749,-0.000000,9178.553681
84.147202,536.266849,-444.123565,9400.615463
84.147528,-306.438199,-74.020594,9696.697840
84.147854,-536.266849,-444.123565,9992.780217
84.148180,-536.266849,-74.020594,9548.656652
84.148506,-689.485948,-0.000000,9252.574275
84.148832,-766.095498,296.082377,9326.594869
84.149158,-612.876398,444.123565,9030.512492
84.149484,-842.705048,1110.308913,9104.533087
84.149810,-919.314598,1036.288319,8660.409521
84.150136,-612.876398,666.185348,8882.471304
84.150461,-1302.362347,296.082377,8512.368333
84.150787,-1685.410096,-0.000000,8808.450710
84.151113,-2068.457845,-296.082377,9104.533087
84.151439,-2451.505594,-666.185348,9252.574275
84.151765,-3064.381992,-444.123565,9400.615463
84.152091,-2604.724693,-592.164754,10066.800811
84.152417,-2757.943793,-222.061783,10066.800811
84.152743,-2757.943793,-296.082377,9770.718434
84.153069,-2528.115143,-0.000000,9400.615463
84.153395,-2451.505594,-370.102971,9326.594869
84.153720,-2221.676944,-888.247130,9696.697840
84.154046,-1532.190996,-222.061783,9474.636058
84.154372,-1225.752797,-0.000000,8882.471304
84.154698,-536.266849,-370.102971,9178.553681
84.155024,-306.438199,-740.205942,9696.697840
84.155350,-306.438199,-296.082377,9104.533087
84.155676,689.485948,-0.000000,8734.430116
84.156002,766.095498,-0.000000,8808.450710
84.156328,919.314598,-296.082377,9104.533087
84.156654,1685.410096,296.082377,8956.491898
84.156979,1302.362347,370.102971,8364.327145
84.157305,1455.581446,518.144159,8882.471304
84.157631,1455.581446,740.205942,9030.512492
84.157957,1608.800546,518.144159,8808.450710
84.158283,1915.238745,740.205942,8882.471304
84.158609,1378.971896,-74.020594,9104.533087
84.158935,1149.143247,-222.061783,9474.636058
84.159261,1072.533697,-814.226536,9400.615463
84.159587,612.876398,-74.020594,9326.594869
84.159912,689.485948,-222.061783,9104.533087
84.160238,536.266849,-74.020594,9178.553681
84.160564,153.219100,-0.000000,9104.533087
84.160890,536.266849,-0.000000,9252.574275
84.161216,229.828649,296.082377,9252.574275
84.161542,153.219100,222.061783,8808.450710
84.161868,459.657299,370.102971,9030.512492
84.162194,153.219100,444.123565,9030.512492
84.162520,0.000000,518.144159,8956.491898
84.162846,0.000000,370.102971,9030.512492
84.163171,-383.047749,148.041188,9252.574275
84.163497,-842.705048,-74.020594,9548.656652
84.163823,-383.047749,-0.000000,9474.636058
84.164149,-1149.143247,-0.000000,9178.553681
84.164475,-1455.581446,222.061783,9400.615463
84.164801,-1991.848295,-74.020594,9548.656652
84.165127,-2145.067394,-0.000000,9400.615463
84.165453,-1991.848295,-148.041188,9548.656652
84.165779,-2374.896044,-74.020594,9770.718434
84.166105,-1838.629195,-148.041188,9622.677246
84.166430,-2068.457845,-0.000000,9400.615463
84.166756,-1915.238745,-0.000000,9104.533087
84.167082,-1532.190996,518.144159,9252.574275
84.167408,-1608.800546,-74.020594,9104.533087
84.167734,-1608.800546,-0.000000,9178.553681
84.168060,-842.705048,-0.000000,9178.553681
84.168386,-1072.533697,-222.061783,8882.471304
84.168712,-919.314598,-0.000000,8290.306550
84.169038,-1608.800546,-0.000000,9178.553681
84.169364,-1532.190996,-222.061783,9104.533087
84.169689,-1302.362347,-0.000000,9326.594869
84.170015,-1302.362347,-222.061783,9252.574275
84.170341,-919.314598,-222.061783,9474.636058
84.170667,-689.485948,-148.041188,9622.677246
84.170993,-153.219100,-148.041188,9770.718434
84.171319,-153.219100,148.041188,9104.533087
84.171645,0.000000,-0.000000,9104.533087
84.171971,76.609550,-0.000000,9178.553681
84.172297,383.047749,222.061783,9030.512492
84.172623,76.609550,-0.000000,8438.347739
84.172948,919.314598,222.061783,8734.430116
84.173274,766.095498,148.041188,8956.491898
84.173600,612.876398,-222.061783,9178.553681
84.173926,459.657299,296.082377,8734.430116
84.174252,383.047749,222.061783,9104.533087
84.174578,306.438199,-0.000000,9178.553681
84.174904,536.266849,-296.082377,9178.553681
84.175230,229.828649,-148.041188,9400.615463
84.175556,76.609550,370.102971,9696.697840
84.175882,229.828649,222.061783,9178.553681
84.176207,153.219100,444.123565,9104.533087
84.176533,153.219100,222.061783,9178.553681
84.176859,0.000000,74.020594,9178.553681
84.177185,76.609550,-0.000000,8882.471304
84.177511,0.000000,148.041188,9400.615463
84.177837,0.000000,-148.041188,9548.656652
84.178163,0.000000,-0.000000,9474.636058
84.178489,-306.438199,222.061783,8882.471304
84.178815,-306.438199,518.144159,9030.512492
84.179141,-383.047749,148.041188,9400.615463
84.179466,-383.047749,-0.000000,9326.594869
84.179792,-229.828649,444.123565,9326.594869
84.180118,-689.485948,666.185348,9178.553681
84.180444,-919.314598,148.041188,9474.636058
84.180770,-1072.533697,-0.000000,8956.491898
84.181096,-995.924147,-0.000000,9030.512492
84.181422,-1762.019645,-0.000000,8882.471304
84.181748,-1378.971896,-148.041188,9474.636058
84.182074,-1762.019645,-518.144159,9622.677246
84.182400,-1149.143247,-592.164754,9548.656652
84.182725,-1685.410096,-74.020594,9326.594869
84.183051,-1915.238745,-444.123565,9326.594869
84.183377,-1608.800546,-518.144159,9548.656652
84.183703,-1455.581446,-148.041188,9104.533087
84.184029,-1072.533697,-0.000000,9400.615463
84.184355,-1532.190996,-0.000000,8808.450710
84.184681,-766.095498,296.082377,9178.553681
84.185007,-459.657299,370.102971,9104.533087
84.185333,-383.047749,592.164754,8660.409521
84.185659,-153.219100,296.082377,9104.533087
84.185984,0.000000,-0.000000,8660.409521
84.186310,-153.219100,-0.000000,8808.450710
84.186636,-306.438199,-74.020594,9400.615463
84.186962,0.000000,-222.061783,9400.615463
84.187288,0.000000,-296.082377,8808.450710
84.187614,-536.266849,-222.061783,9030.512492
84.187940,-766.095498,-222.061783,9474.636058
84.188266,0.000000,148.041188,9548.656652
84.188592,0.000000,148.041188,8734.430116
84.188918,459.657299,222.061783,8956.491898
84.189243,0.000000,-74.020594,9770.718434
84.189569,76.609550,-0.000000,9326.594869
84.189895,0.000000,740.205942,9474.636058
84.190221,612.876398,148.041188,8734.430116
84.190547,689.485948,-370.102971,8882.471304
84.190873,306.438199,-370.102971,9326.594869
84.191199,612.876398,-74.020594,9326.594869
84.191525,612.876398,-0.000000,8586.388927
84.191851,459.657299,592.164754,8882.471304
84.192176,153.219100,444.123565,8956.491898
84.192502,76.609550,592.164754,9104.533087
84.192828,-383.047749,518.144159,9326.594869
84.193154,-459.657299,74.020594,9252.574275
84.193480,-153.219100,296.082377,9474.636058
84.193806,0.000000,-370.102971,9326.594869
84.194132,-229.828649,-518.144159,9252.574275
84.194458,-689.485948,-592.164754,9474.636058
84.194784,-919.314598,-222.061783,9548.656652
84.195110,-689.485948,-148.041188,9400.615463
84.195435,-383.047749,-0.000000,9252.574275
84.195761,0.000000,296.082377,9104.533087
84.196087,-459.657299,-0.000000,9326.594869
84.196413,-459.657299,222.061783,8808.450710
84.196739,-459.657299,518.144159,8734.430116
84.197065,-306.438199,444.123565,9252.574275
84.197391,-383.047749,222.061783,8956.491898
84.197717,-536.266849,-148.041188,9252.574275
84.198043,-689.485948,-666.185348,9696.697840
84.198369,-766.095498,-518.144159,9326.594869
84.198694,-842.705048,-222.061783,8660.409521
84.199020,-612.876398,-0.000000,9326.594869
84.199346,-536.266849,-0.000000,8956.491898
84.199672,-689.485948,370.102971,9104.533087
84.199998,-536.266849,370.102971,9326.594869
84.200324,-536.266849,370.102971,9400.615463
84.200650,-229.828649,370.102971,8734.430116
84.200976,0.000000,592.164754,8660.409521
84.201302,-153.219100,-0.000000,9474.636058
84.201628,-306.438199,-0.000000,9030.512492
84.201953,-229.828649,-0.000000,8734.430116
84.202279,-459.657299,-444.123565,9400.615463
84.202605,-689.485948,-518.144159,8956.491898
84.202931,-536.266849,-0.000000,9474.636058
84.203257,-459.657299,-148.041188,9178.553681
84.203583,-536.266849,296.082377,9104.533087
84.203909,-689.485948,148.041188,9474.636058
84.204235,-612.876398,444.123565,8882.471304
84.204561,-306.438199,222.061783,9178.553681
84.204887,-766.095498,444.123565,9178.553681
84.205212,-689.485948,-0.000000,9252.574275
84.205538,-766.095498,-0.000000,9104.533087
84.205864,0.000000,148.041188,9178.553681
84.206190,-689.485948,-0.000000,9104.533087
84.206516,0.000000,-0.000000,9252.574275
84.206842,-153.219100,-0.000000,9326.594869
84.207168,-306.438199,296.082377,8956.491898
84.207494,76.609550,370.102971,9178.553681
84.207820,-153.219100,-0.000000,9252.574275
84.208146,-383.047749,-74.020594,9178.553681
84.208471,-689.485948,148.041188,9030.512492
84.208797,-536.266849,296.082377,9178.553681
84.209123,-995.924147,148.041188,9030.512492
84.209449,-536.266849,-0.000000,9326.594869
84.209775,-1149.143247,-222.061783,9178.553681
84.210101,-919.314598,-370.102971,9252.574275
84.210427,-612.876398,-0.000000,9844.739029
84.210753,-919.314598,-370.102971,9400.615463
84.211079,-612.876398,-370.102971,9474.636058
84.211405,-1225.752797,-148.041188,9400.615463
84.211730,-919.314598,148.041188,9104.533087
84.212056,-536.266849,222.061783,9400.615463
84.212382,-459.657299,370.102971,9104.533087
84.212708,-459.657299,370.102971,9178.553681
84.213034,0.000000,-0.000000,8660.409521
84.213360,-383.047749,666.185348,8956.491898
84.213686,-383.047749,296.082377,8734.430116
84.214012,-766.095498,-0.000000,9252.574275
84.214338,-995.924147,-0.000000,9104.533087
84.214664,-612.876398,-0.000000,9326.594869
84.214989,-1225.752797,-0.000000,9252.574275
84.215315,-1608.800546,-444.123565,9622.677246
84.215641,-1608.800546,-444.123565,9548.656652
84.215967,-1225.752797,-74.020594,9474.636058
84.216293,-1149.143247,-148.041188,9178.553681
84.216619,-1072.533697,-296.082377,9326.594869
84.216945,-766.095498,-148.041188,9474.636058
84.217271,0.000000,296.082377,8956.491898
84.217597,76.609550,370.102971,8586.388927
84.217923,153.219100,444.123565,8956.491898
84.218248,0.000000,222.061783,8808.450710
84.218574,153.219100,-0.000000,9030.512492
84.218900,0.000000,666.185348,8660.409521
84.219226,-229.828649,444.123565,8956.491898
84.219552,-766.095498,-0.000000,9696.697840
84.219878,-1149.143247,-0.000000,9992.780217
84.220204,-1225.752797,-0.000000,9548.656652
84.220530,-1149.143247,148.041188,9474.636058
84.220856,-1149.143247,-148.041188,9474.636058
84.221181,-1378.971896,-148.041188,9474.636058
84.221507,-536.266849,-0.000000,9326.594869
84.221833,-995.924147,-0.000000,9178.553681
84.222159,-383.047749,370.102971,9622.677246
84.222485,0.000000,-0.000000,9474.636058
84.222811,0.000000,-0.000000,8882.471304
84.223137,229.828649,518.144159,8882.471304
84.223462,306.438199,296.082377,8882.471304
84.223788,459.657299,296.082377,8808.450710
84.224114,0.000000,-0.000000,9104.533087
84.224440,306.438199,296.082377,8956.491898
84.224766,0.000000,518.144159,9104.533087
84.225092,-153.219100,222.061783,9104.533087
84.225418,-306.438199,296.082377,9400.615463
84.225743,0.000000,222.061783,9474.636058
84.226069,-229.828649,-0.000000,9400.615463
84.226395,-229.828649,-148.041188,9474.636058
84.226721,-229.828649,-148.041188,9400.615463
84.227047,0.000000,-592.164754,9474.636058
84.227373,-612.876398,-444.123565,9400.615463
84.227699,-306.438199,-0.000000,9178.553681
84.228024,-306.438199,-0.000000,9474.636058
84.228350,-306.438199,-0.000000,9474.636058
84.228676,0.000000,-148.041188,8734.430116
84.229002,-153.219100,148.041188,8512.368333
84.229328,0.000000,370.102971,8882.471304
84.229654,0.000000,74.020594,8882.471304
84.229980,-153.219100,370.102971,9030.512492
84.230305,-459.657299,222.061783,8586.388927
84.230631,-536.266849,518.144159,8734.430116
84.230957,-842.705048,370.102971,9104.533087
84.231283,-1149.143247,-0.000000,9252.574275
84.231609,-1302.362347,-370.102971,9400.615463
84.231935,-1685.410096,-370.102971,9030.512492
84.232261,-1608.800546,-222.061783,9474.636058
84.232586,-2221.676944,-444.123565,9474.636058
84.232912,-1838.629195,-296.082377,9696.697840
84.233238,-2298.286494,-148.041188,9548.656652
84.233564,-1455.581446,-0.000000,9622.677246
84.233890,-1072.533697,-0.000000,9622.677246
84.234216,-1149.143247,-0.000000,9696.697840
84.234542,-536.266849,-74.020594,9104.533087
84.234867,-459.657299,222.061783,9178.553681
84.235193,229.828649,296.082377,8882.471304
84.235519,612.876398,222.061783,8734.430116
84.235845,766.095498,-0.000000,8956.491898
84.236171,1225.752797,-0.000000,8956.491898
84.236497,1225.752797,444.123565,8808.450710
84.236823,766.095498,370.102971,8882.471304
84.237148,766.095498,222.061783,9178.553681
84.237474,459.657299,222.061783,9696.697840
84.237800,306.438199,518.144159,9400.615463
84.238126,689.485948,-74.020594,9326.594869
84.238452,842.705048,-0.000000,9770.718434
84.238778,842.705048,148.041188,9696.697840
84.239104,766.095498,370.102971,9326.594869
84.239429,1225.752797,444.123565,8956.491898
84.239755,995.924147,444.123565,9252.574275
84.240081,995.924147,370.102971,9326.594869
84.240407,1072.533697,-0.000000,8956.491898
84.240733,689.485948,-0.000000,8512.368333
84.241059,1072.533697,-0.000000,8956.491898
84.241385,689.485948,-0.000000,9030.512492
84.241710,383.047749,-0.000000,8660.409521
84.242036,153.219100,-148.041188,9400.615463
84.242362,-229.828649,-0.000000,9252.574275
84.242688,0.000000,-0.000000,9770.718434
84.243014,-229.828649,-0.000000,9326.594869
84.243340,-689.485948,-148.041188,9030.512492
84.243666,-1072.533697,-0.000000,9770.718434
84.243991,-842.705048,296.082377,9548.656652
84.244317,-995.924147,-0.000000,9104.533087
84.244643,-919.314598,-0.000000,9252.574275
84.244969,-1455.581446,-0.000000,9252.574275
84.245295,-842.705048,-74.020594,9474.636058
84.245621,-1072.533697,-0.000000,9474.636058
84.245947,-919.314598,-0.000000,9178.553681
84.246272,-1225.752797,-74.020594,9178.553681
84.246598,-689.485948,-0.000000,9178.553681
84.246924,-766.095498,-0.000000,8956.491898
84.247250,-689.485948,-370.102971,8882.471304
84.247576,-383.047749,-518.144159,9474.636058
84.247902,-536.266849,-592.164754,8956.491898
84.248228,0.000000,-0.000000,9178.553681
84.248553,0.000000,-0.000000,8956.491898
84.248879,76.609550,-0.000000,9178.553681
84.249205,76.609550,296.082377,9326.594869
84.249531,536.266849,-74.020594,8808.450710
84.249857,612.876398,296.082377,9030.512492
84.250183,842.705048,-0.000000,8586.388927
84.250509,842.705048,-0.000000,9104.533087
84.250834,1149.143247,370.102971,8956.491898
84.251160,1378.971896,-0.000000,9030.512492
84.251486,1225.752797,296.082377,9252.574275
84.251812,1455.581446,-0.000000,9474.636058
84.252138,1149.143247,-222.061783,9326.594869
84.252464,1532.190996,-148.041188,8808.450710
84.252790,1762.019645,222.061783,9474.636058
84.253115,1455.581446,-74.020594,9474.636058
84.253441,1608.800546,222.061783,9252.574275
84.253767,1302.362347,518.144159,9252.574275
84.254093,1455.581446,666.185348,9178.553681
84.254419,1762.019645,666.185348,9030.512492
84.254745,1378.971896,222.061783,9030.512492
84.255071,1378.971896,-0.000000,9030.512492
84.255396,919.314598,-0.000000,9474.636058
84.255722,842.705048,296.082377,9104.533087
84.256048,689.485948,296.082377,9178.553681
84.256374,0.000000,-0.000000,9252.574275
84.256700,0.000000,-74.020594,9770.718434
84.257026,-229.828649,-0.000000,9770.718434
84.257352,0.000000,-0.000000,9252.574275
84.257677,-306.438199,-0.000000,9400.615463
84.258003,-612.876398,-74.020594,9252.574275
84.258329,-459.657299,222.061783,9326.594869
84.258655,-383.047749,444.123565,9030.512492
84.258981,-229.828649,-0.000000,8882.471304
84.259307,-153.219100,-0.000000,9178.553681
84.259633,-229.828649,-148.041188,9252.574275
84.259958,-306.438199,-370.102971,8512.368333
84.260284,-383.047749,-74.020594,8956.491898
84.260610,-459.657299,-296.082377,9104.533087
84.260936,-459.657299,-148.041188,9030.512492
84.261262,153.219100,-74.020594,9252.574275
84.261588,-229.828649,-0.000000,9030.512492
84.261914,-306.438199,-0.000000,9326.594869
84.262239,-153.219100,-148.041188,9400.615463
84.262565,0.000000,-0.000000,9104.533087
84.262891,0.000000,148.041188,9030.512492
84.263217,0.000000,-0.000000,9178.553681
84.263543,229.828649,-74.020594,9030.512492
84.263869,383.047749,-148.041188,9400.615463
84.264195,383.047749,-148.041188,8734.430116
84.264520,459.657299,-74.020594,8956.491898
84.264846,919.314598,-222.061783,9252.574275
84.265172,842.705048,-0.000000,8956.491898
84.265498,995.924147,-0.000000,9104.533087
84.265824,919.314598,148.041188,8956.491898
84.266150,995.924147,-0.000000,9104.533087
84.266476,842.705048,-148.041188,8734.430116
84.266801,1149.143247,-0.000000,9548.656652
84.267127,1072.533697,148.041188,8660.409521
84.267453,1455.581446,444.123565,9178.553681
84.267779,1455.581446,444.123565,9104.533087
84.268105,1455.581446,518.144159,8734.430116
84.268431,1302.362347,148.041188,9104.533087
84.268757,1455.581446,-0.000000,8734.430116
84.269082,842.705048,222.061783,9252.574275
84.269408,766.095498,-0.000000,8882.471304
84.269734,689.485948,370.102971,9326.594869
84.270060,459.657299,148.041188,9400.615463
84.270386,459.657299,-0.000000,9474.636058
84.270712,-459.657299,-74.020594,9622.677246
84.271038,0.000000,-148.041188,9622.677246
84.271363,-536.266849,-148.041188,9622.677246
84.271689,76.609550,-0.000000,9696.697840
84.272015,76.609550,-0.000000,9400.615463
84.272341,0.000000,296.082377,9104.533087
84.272667,229.828649,222.061783,9252.574275
84.272993,76.609550,-0.000000,8882.471304
84.273319,0.000000,148.041188,9030.512492
84.273644,459.657299,518.144159,9178.553681
84.273970,0.000000,148.041188,9252.574275
84.274296,229.828649,370.102971,9252.574275
84.274622,-383.047749,222.061783,9104.533087
84.274948,153.219100,-0.000000,8882.471304
84.275274,-383.047749,296.082377,9474.636058
84.275600,-612.876398,222.061783,9400.615463
84.275925,-383.047749,-0.000000,9474.636058
84.276251,-766.095498,148.041188,9474.636058
84.276577,-689.485948,-148.041188,9548.656652
84.276903,-919.314598,-222.061783,9326.594869
84.277229,-612.876398,-0.000000,9178.553681
84.277555,-383.047749,-222.061783,9252.574275
84.277881,-612.876398,-222.061783,9326.594869
84.278206,-689.485948,-296.082377,9104.533087
84.278532,306.438199,-222.061783,9400.615463
84.278858,76.609550,-296.082377,8882.471304
84.279184,0.000000,-0.000000,8808.450710
84.279510,306.438199,-0.000000,8956.491898
84.279836,459.657299,370.102971,9252.574275
84.280162,842.705048,296.082377,8956.491898
84.280487,842.705048,-0.000000,8882.471304
84.280813,459.657299,-74.020594,8586.388927
84.281139,0.000000,-296.082377,9400.615463
84.281465,612.876398,518.144159,9548.656652
84.281791,842.705048,-0.000000,8734.430116
84.282117,919.314598,-222.061783,9326.594869
84.282443,536.266849,-962.267725,9770.718434
84.282768,306.438199,-0.000000,9770.718434
84.283094,1302.362347,-0.000000,9474.636058
84.283420,766.095498,222.061783,9104.533087
84.283746,536.266849,962.267725,9030.512492
84.284072,1072.533697,740.205942,8882.471304
84.284398,842.705048,370.102971,8808.450710
84.284724,919.314598,-0.000000,9030.512492
84.285049,0.000000,-0.000000,9400.615463
84.285375,612.876398,-222.061783,9030.512492
84.285701,842.705048,370.102971,9104.533087
84.286027,383.047749,296.082377,9326.594869
84.286353,153.219100,222.061783,9474.636058
84.286679,0.000000,222.061783,9252.574275
84.287005,0.000000,-0.000000,9326.594869
84.287330,0.000000,-0.000000,9400.615463
84.287656,306.438199,-222.061783,9104.533087
84.287982,-383.047749,-0.000000,9474.636058
84.288308,-459.657299,148.041188,9326.594869
84.288634,-766.095498,296.082377,9400.615463
84.288960,-229.828649,370.102971,9326.594869
84.289286,-536.266849,148.041188,9178.553681
84.289611,0.000000,-222.061783,9400.615463
84.289937,0.000000,-0.000000,9696.697840
84.290263,229.828649,-148.041188,9030.512492
84.290589,-306.438199,-148.041188,9548.656652
84.290915,-459.657299,-0.000000,9548.656652
84.291241,-153.219100,-0.000000,9252.574275
84.291567,153.219100,370.102971,8956.491898
84.291892,-306.438199,-444.123565,8956.491898
84.292218,229.828649,-74.020594,9622.677246
84.292544,766.095498,-0.000000,9548.656652
84.292870,229.828649,518.144159,8586.388927
84.293196,153.219100,370.102971,9178.553681
84.293522,76.609550,-0.000000,9474.636058
84.293848,153.219100,-0.000000,8882.471304
84.294173,919.314598,-0.000000,9474.636058
84.294499,306.438199,-74.020594,9252.574275
84.294825,229.828649,-296.082377,8956.491898
84.295151,689.485948,-0.000000,9326.594869
84.295477,383.047749,370.102971,8586.388927
84.295803,459.657299,148.041188,9252.574275
84.296129,536.266849,148.041188,8808.450710
84.296454,919.314598,-0.000000,9104.533087
84.296780,766.095498,-0.000000,9178.553681
84.297106,1149.143247,148.041188,9104.533087
84.297432,766.095498,296.082377,9178.553681
84.297758,919.314598,148.041188,9178.553681
84.298084,919.314598,-0.000000,8660.409521
84.298410,1072.533697,-0.000000,8882.471304
84.298735,842.705048,-0.000000,9178.553681
84.299061,1302.362347,-222.061783,9474.636058
84.299387,1225.752797,-0.000000,9030.512492
84.299713,612.876398,-0.000000,9326.594869
84.300039,306.438199,148.041188,9030.512492
84.300365,153.219100,-0.000000,9474.636058
84.300691,383.047749,-296.082377,9622.677246
84.301016,229.828649,-444.123565,9252.574275
84.301342,995.924147,-0.000000,9696.697840
84.301668,306.438199,148.041188,8882.471304
84.301994,459.657299,-0.000000,9474.636058
84.302320,689.485948,148.041188,9326.594869
84.302646,306.438199,296.082377,8586.388927
84.302972,536.266849,370.102971,8956.491898
84.303297,306.438199,-0.000000,8956.491898
84.303623,459.657299,296.082377,9104.533087
84.303949,229.828649,222.061783,9474.636058
84.304275,0.000000,444.123565,9622.677246
84.304601,-229.828649,-0.000000,9252.574275
84.304927,0.000000,-74.020594,9548.656652
84.305253,-306.438199,-148.041188,9474.636058
84.305578,306.438199,-0.000000,9548.656652
84.305904,0.000000,-74.020594,9474.636058
84.306230,-383.047749,-370.102971,9548.656652
84.306556,-229.828649,-0.000000,9178.553681
84.306882,-306.438199,-0.000000,9030.512492
84.307208,-76.609550,74.020594,9326.594869
84.307534,76.609550,-0.000000,9030.512492
84.307859,153.219100,148.041188,8808.450710
84.308185,0.000000,148.041188,9178.553681
84.308511,229.828649,-444.123565,9178.553681
84.308837,536.266849,-0.000000,9252.574275
84.309163,306.438199,-0.000000,8956.491898
84.309489,306.438199,-0.000000,9178.553681
84.309815,459.657299,148.041188,9252.574275
84.310140,536.266849,-0.000000,9252.574275
84.310466,0.000000,-222.061783,9474.636058
84.310792,766.095498,-148.041188,9178.553681
84.311118,536.266849,-222.061783,9178.553681
84.311444,689.485948,148.041188,9104.533087
84.311770,383.047749,-0.000000,9252.574275
84.312096,766.095498,296.082377,9104.533087
84.312421,919.314598,296.082377,9030.512492
84.312747,919.314598,222.061783,8956.491898
84.313073,1455.581446,296.082377,9104.533087
84.313399,919.314598,148.041188,9474.636058
84.313725,1072.533697,-0.000000,9178.553681
84.314051,1149.143247,-148.041188,9178.553681
84.314377,1072.533697,-0.000000,9178.553681
84.314702,1225.752797,-74.020594,8956.491898
84.315028,1072.533697,-0.000000,8956.491898
84.315354,995.924147,-148.041188,9252.574275
84.315680,1225.752797,-222.061783,9400.615463
84.316006,1608.800546,-0.000000,9696.697840
84.316332,1225.752797,148.041188,9104.533087
84.316658,995.924147,148.041188,9326.594869
84.316983,919.314598,-0.000000,9104.533087
84.317309,1302.362347,370.102971,8956.491898
84.317635,1378.971896,-0.000000,8956.491898
84.317961,612.876398,296.082377,9400.615463
84.318287,76.609550,-74.020594,8808.450710
84.318613,536.266849,296.082377,9326.594869
84.318939,0.000000,-0.000000,8734.430116
84.319264,153.219100,222.061783,9104.533087
84.319590,-229.828649,-0.000000,9030.512492
84.319916,-842.705048,-0.000000,9400.615463
84.320242,-306.438199,-148.041188,9474.636058
84.320568,-919.314598,222.061783,9622.677246
84.320894,-689.485948,-444.123565,9474.636058
84.321220,-689.485948,-444.123565,9474.636058
84.321545,-919.314598,-222.061783,9400.615463
84.321871,-919.314598,148.041188,9104.533087
84.322197,-842.705048,-0.000000,9030.512492
84.322523,-383.047749,-0.000000,8956.491898
84.322849,-689.485948,296.082377,8734.430116
84.323175,-229.828649,370.102971,8808.450710
84.323501,-612.876398,370.102971,8808.450710
84.323827,-689.485948,444.123565,8956.491898
84.324153,-536.266849,222.061783,9326.594869
84.324479,-306.438199,-296.082377,8882.471304
84.324805,-383.047749,-444.123565,9252.574275
84.325131,-536.266849,-444.123565,9548.656652
84.325457,-766.095498,-518.144159,9770.718434
84.325783,-306.438199,-0.000000,9030.512492
84.326109,229.828649,-0.000000,9474.636058
84.326435,0.000000,-0.000000,9400.615463
84.326761,919.314598,-370.102971,9474.636058
84.327087,995.924147,-0.000000,9178.553681
84.327413,1302.362347,-0.000000,8808.450710
84.327739,1685.410096,592.164754,9548.656652
84.328065,1532.190996,444.123565,8882.471304
84.328391,1838.629195,444.123565,8586.388927
84.328716,1685.410096,370.102971,9104.533087
84.329042,1915.238745,296.082377,9178.553681
84.329368,1762.019645,222.061783,9474.636058
84.329694,1455.581446,-0.000000,9104.533087
84.330020,1302.362347,592.164754,9178.553681
84.330346,1302.362347,518.144159,8956.491898
84.330672,689.485948,296.082377,9400.615463
84.330998,459.657299,-0.000000,9178.553681
84.331324,306.438199,444.123565,9178.553681
84.331650,229.828649,296.082377,8956.491898
84.331976,229.828649,222.061783,9178.553681
84.332302,0.000000,222.061783,9326.594869
84.332628,-306.438199,592.164754,9474.636058
84.332954,-919.314598,370.102971,9030.512492
84.333280,-919.314598,370.102971,9104.533087
84.333606,-1532.190996,148.041188,8882.471304
84.333932,-1378.971896,-0.000000,8956.491898
84.334258,-1608.800546,-444.123565,9252.574275
84.334584,-2068.457845,-74.020594,9400.615463
84.334910,-1838.629195,-592.164754,9178.553681
84.335236,-2221.676944,-222.061783,9474.636058
84.335562,-1838.629195,-0.000000,9326.594869
84.335887,-2068.457845,-0.000000,9326.594869
84.336213,-1455.581446,-0.000000,9326.594869
84.336539,-1685.410096,444.123565,9548.656652
84.336865,-1915.238745,222.061783,9474.636058
84.337191,-1302.362347,-0.000000,8808.450710
84.337517,-1608.800546,-148.041188,8808.450710
84.337843,-1762.019645,-518.144159,9696.697840
84.338169,-1608.800546,-222.061783,9474.636058
84.338495,-1302.362347,-222.061783,9252.574275
84.338821,-1072.533697,-814.226536,9104.533087
84.339147,-842.705048,-592.164754,10584.944971
84.339473,0.000000,-962.267725,9474.636058
84.339799,0.000000,-0.000000,9178.553681
84.340125,383.047749,148.041188,9104.533087
84.340451,766.095498,-0.000000,8882.471304
84.340777,1532.190996,592.164754,8734.430116
84.341103,1532.190996,518.144159,8364.327145
84.341429,1455.581446,1110.308913,8512.368333
84.341755,1455.581446,740.205942,8882.471304
84.342081,1455.581446,444.123565,8512.368333
84.342407,1532.190996,518.144159,8882.471304
84.342733,612.876398,-0.000000,8882.471304
84.343058,612.876398,-74.020594,9400.615463
84.343384,459.657299,-222.061783,9844.739029
84.343710,995.924147,-444.123565,9474.636058
84.344036,689.485948,-148.041188,9474.636058
84.344362,689.485948,-0.000000,9474.636058
84.344688,0.000000,296.082377,9178.553681
84.345014,76.609550,222.061783,9326.594869
84.345340,0.000000,370.102971,9104.533087
84.345666,459.657299,740.205942,8734.430116
84.345992,383.047749,592.164754,8290.306550
84.346318,459.657299,444.123565,8734.430116
84.346644,-229.828649,-0.000000,8438.347739
84.346970,0.000000,148.041188,8808.450710
84.347296,-459.657299,-0.000000,9030.512492
84.347622,-995.924147,-222.061783,9104.533087
84.347948,-1072.533697,-74.020594,9474.636058
84.348274,-1532.190996,-0.000000,9918.759623
84.348600,-1608.800546,296.082377,9104.533087
84.348926,-1915.238745,296.082377,9548.656652
84.349252,-2068.457845,148.041188,9400.615463
84.349578,-2145.067394,222.061783,9548.656652
84.349904,-2068.457845,444.123565,9474.636058
84.350229,-2145.067394,-0.000000,9030.512492
84.350555,-1302.362347,148.041188,9326.594869
84.350881,-1838.629195,-444.123565,9252.574275
84.351207,-1991.848295,-296.082377,9400.615463
84.351533,-1608.800546,-296.082377,9400.615463
84.351859,-1608.800546,-74.020594,9400.615463
84.352185,-1225.752797,-74.020594,9326.594869
84.352511,-1225.752797,-0.000000,8882.471304
84.352837,-1072.533697,-0.000000,8808.450710
84.353163,-919.314598,-74.020594,8808.450710
84.353489,-689.485948,222.061783,9548.656652
84.353815,-306.438199,222.061783,9178.553681
84.354141,0.000000,-0.000000,8808.450710
84.354467,-153.219100,-0.000000,9030.512492
84.354793,0.000000,222.061783,9400.615463
84.355119,842.705048,-0.000000,8808.450710
84.355445,-229.828649,296.082377,8734.430116
84.355771,0.000000,148.041188,9178.553681
84.356097,-536.266849,-0.000000,9178.553681
84.356423,-153.219100,296.082377,9252.574275
84.356749,-383.047749,-0.000000,9178.553681
84.357075,-689.485948,-222.061783,8734.430116
84.357400,-383.047749,-444.123565,9474.636058
84.357726,0.000000,-444.123565,9400.615463
84.358052,0.000000,-518.144159,9178.553681
84.358378,459.657299,-148.041188,9252.574275
84.358704,536.266849,-148.041188,9030.512492
84.359030,919.314598,148.041188,8882.471304
84.359356,842.705048,518.144159,8660.409521
84.359682,689.485948,148.041188,8808.450710
84.360008,612.876398,592.164754,8882.471304
84.360334,459.657299,888.247130,8808.450710
84.360660,383.047749,592.164754,8512.368333
84.360986,0.000000,518.144159,8734.430116
84.361312,-612.876398,222.061783,9400.615463
84.361638,-689.485948,-0.000000,9622.677246
84.361964,-842.705048,-0.000000,9474.636058
84.362290,-842.705048,-592.164754,9326.594869
84.362616,-1378.971896,-0.000000,10288.862594
84.362942,-1072.533697,-518.144159,10140.821405
84.363268,-842.705048,-0.000000,9474.636058
84.363594,-612.876398,-0.000000,9252.574275
84.363920,-1072.533697,-0.000000,8882.471304
84.364246,-459.657299,148.041188,9474.636058
84.364571,-766.095498,592.164754,9178.553681
84.364897,-995.924147,296.082377,8808.450710
84.365223,-536.266849,296.082377,9030.512492
84.365549,-1225.752797,-0.000000,9104.533087
84.365875,-1149.143247,296.082377,9104.533087
84.366201,-1302.362347,370.102971,9326.594869
84.366527,-1149.143247,296.082377,9178.553681
84.366853,-919.314598,-74.020594,9252.574275
84.367179,-1225.752797,-222.061783,9844.739029
84.367505,-1302.362347,-222.061783,9252.574275
84.367831,-1378.971896,-148.041188,9696.697840
84.368157,-1378.971896,-0.000000,9326.594869
84.368483,-1225.752797,148.041188,9030.512492
84.368809,-766.095498,-0.000000,9622.677246
84.369135,-995.924147,-222.061783,9030.512492
84.369461,-919.314598,-0.000000,9030.512492
84.369787,-612.876398,-148.041188,9178.553681
84.370113,-459.657299,-0.000000,9474.636058
84.370439,-153.219100,296.082377,8808.450710
84.370765,0.000000,222.061783,8734.430116
84.371091,-383.047749,148.041188,8882.471304
84.371417,0.000000,444.123565,9474.636058
84.371742,689.485948,222.061783,9178.553681
84.372068,0.000000,-0.000000,7994.224174
84.372394,306.438199,-148.041188,9252.574275
84.372720,-229.828649,-592.164754,9770.718434
84.373046,306.438199,-0.000000,9326.594869
84.373372,229.828649,370.102971,8808.450710
84.373698,306.438199,-0.000000,9030.512492
84.374024,0.000000,-0.000000,9400.615463
84.374350,0.000000,296.082377,9252.574275
84.374676,0.000000,296.082377,9252.574275
84.375002,0.000000,-148.041188,9104.533087
84.375328,-229.828649,-370.102971,9400.615463
84.375654,306.438199,-0.000000,9252.574275
84.375980,383.047749,222.061783,9030.512492
84.376306,612.876398,592.164754,9030.512492
84.376632,383.047749,444.123565,8512.368333
84.376958,153.219100,666.185348,9030.512492
84.377284,153.219100,592.164754,8882.471304
84.377610,229.828649,814.226536,8660.409521
84.377936,0.000000,518.144159,8956.491898
84.378262,-383.047749,-518.144159,9252.574275
84.378588,-2145.067394,-962.267725,10214.842000
84.378913,-1072.533697,-1110.308913,9770.718434
84.379239,-1685.410096,-666.185348,9474.636058
84.379565,-1302.362347,-222.061783,9474.636058
84.379891,-1225.752797,444.123565,9252.574275
84.380217,-919.314598,814.226536,9326.594869
84.380543,-459.657299,666.185348,9252.574275
84.380869,-536.266849,296.082377,8660.409521
84.381195,-612.876398,-74.020594,9178.553681
84.381521,-536.266849,-0.000000,9252.574275
84.381847,-229.828649,-74.020594,9400.615463
84.382173,-536.266849,-222.061783,9030.512492
84.382499,-689.485948,-370.102971,8882.471304
84.382825,-995.924147,-666.185348,9622.677246
84.383151,-612.876398,-592.164754,9474.636058
84.383477,-689.485948,-0.000000,8808.450710
84.383803,-689.485948,370.102971,9400.615463
84.384129,-383.047749,148.041188,9400.615463
84.384455,-689.485948,888.247130,9252.574275
84.384781,-306.438199,962.267725,9400.615463
84.385107,-383.047749,814.226536,8734.430116
84.385433,-383.047749,222.061783,9252.574275
84.385759,-306.438199,-222.061783,9252.574275
84.386084,0.000000,-0.000000,8660.409521
84.386410,-536.266849,-222.061783,9548.656652
84.386736,-612.876398,-222.061783,9178.553681
84.387062,-459.657299,-444.123565,9178.553681
84.387388,-689.485948,-74.020594,9400.615463
84.387714,-76.609550,-0.000000,9178.553681
84.388040,-383.047749,-0.000000,9326.594869
84.388366,-766.095498,-0.000000,9474.636058
84.388692,-612.876398,666.185348,9474.636058
84.389018,-459.657299,370.102971,8956.491898
84.389344,-536.266849,370.102971,8882.471304
84.389670,-459.657299,-0.000000,8882.471304
84.389996,-383.047749,-0.000000,9178.553681
84.390322,-612.876398,-148.041188,9104.533087
84.390648,0.000000,-222.061783,9030.512492
84.390974,-919.314598,-296.082377,9178.553681
84.391300,-536.266849,-148.041188,9326.594869
84.391626,-995.924147,-0.000000,9252.574275
84.391952,-612.876398,222.061783,9104.533087
84.392278,-689.485948,-74.020594,9474.636058
84.392604,-766.095498,-74.020594,8586.388927
84.392930,-689.485948,-0.000000,9326.594869
84.393255,-1149.143247,518.144159,9104.533087
84.393581,-536.266849,296.082377,8882.471304
84.393907,-536.266849,-0.000000,8734.430116
84.394233,-689.485948,-0.000000,9030.512492
84.394559,-612.876398,-0.000000,8956.491898
84.394885,-919.314598,-0.000000,9030.512492
84.395211,-1378.971896,-0.000000,8808.450710
84.395537,-1072.533697,-370.102971,9548.656652
84.395863,-1302.362347,-296.082377,9474.636058
84.396189,-1225.752797,-74.020594,9400.615463
84.396515,-1149.143247,-148.041188,9548.656652
84.396841,-1302.362347,-222.061783,9178.553681
84.397167,-995.924147,-444.123565,9548.656652
84.397493,-842.705048,-148.041188,9178.553681
84.397819,-383.047749,222.061783,8808.450710
84.398145,-306.438199,592.164754,9178.553681
84.398471,0.000000,296.082377,8734.430116
84.398797,0.000000,518.144159,8734.430116
84.399123,0.000000,370.102971,8882.471304
84.399449,-383.047749,-148.041188,9104.533087
84.399775,-689.485948,-444.123565,9178.553681
84.400101,-766.095498,-518.144159,9030.512492
84.400426,-1149.143247,-74.020594,9104.533087
84.400752,-1149.143247,-0.000000,9400.615463
84.401078,-1149.143247,-0.000000,9400.615463
84.401404,-1225.752797,-148.041188,9474.636058
84.401730,-995.924147,-74.020594,9696.697840
84.402056,-842.705048,-0.000000,9548.656652
84.402382,-842.705048,-0.000000,9326.594869
84.402708,0.000000,-0.000000,9252.574275
84.403034,-536.266849,-0.000000,9030.512492
84.403360,-229.828649,-0.000000,8882.471304
84.403686,0.000000,-0.000000,9104.533087
84.404012,0.000000,222.061783,8956.491898
84.404338,229.828649,296.082377,9030.512492
84.404664,0.000000,444.123565,9400.615463
84.404990,76.609550,-0.000000,8734.430116
84.405316,0.000000,444.123565,9252.574275
84.405642,0.000000,-0.000000,9400.615463
84.405968,76.609550,148.041188,9178.553681
84.406294,459.657299,222.061783,9696.697840
84.406620,0.000000,148.041188,9400.615463
84.406946,-459.657299,-370.102971,9252.574275
84.407272,229.828649,-74.020594,9104.533087
84.407597,0.000000,-0.000000,9326.594869
84.407923,0.000000,-0.000000,9326.594869
84.408249,0.000000,-0.000000,8956.491898
84.408575,0.000000,-0.000000,8956.491898
84.408901,-229.828649,296.082377,8956.491898
84.409227,-229.828649,-74.020594,9474.636058
84.409553,-459.657299,-0.000000,9326.594869
84.409879,-612.876398,-0.000000,9104.533087
84.410205,-536.266849,-0.000000,9178.553681
84.410531,-536.266849,-74.020594,8808.450710
84.410857,-536.266849,-222.061783,9178.553681
84.411183,-459.657299,-74.020594,9548.656652
84.411509,-306.438199,-0.000000,9548.656652
84.411835,-612.876398,-0.000000,9178.553681
84.412161,-842.705048,222.061783,8956.491898
84.412487,-1302.362347,148.041188,9178.553681
84.412813,-1072.533697,-0.000000,9104.533087
84.413139,-1378.971896,148.041188,9104.533087
84.413465,-1608.800546,-0.000000,8882.471304
84.413791,-1378.971896,-0.000000,9178.553681
84.414117,-1455.581446,-0.000000,9400.615463
84.414443,-1302.362347,-222.061783,9030.512492
84.414768,-1608.800546,-74.020594,9474.636058
84.415094,-1302.362347,-592.164754,9474.636058
84.415420,-766.095498,-296.082377,9400.615463
84.415746,-612.876398,-74.020594,9326.594869
84.416072,-612.876398,-74.020594,9326.594869
84.416398,-229.828649,296.082377,9400.615463
84.416724,0.000000,-0.000000,8956.491898
84.417050,0.000000,296.082377,9104.533087
84.417376,383.047749,370.102971,9178.553681
84.417702,459.657299,222.061783,8956.491898
84.418028,229.828649,-0.000000,9252.574275
84.418354,383.047749,-148.041188,9326.594869
84.418680,1072.533697,-0.000000,9178.553681
84.419006,459.657299,222.061783,9326.594869
84.419332,766.095498,-0.000000,9474.636058
84.419658,842.705048,296.082377,9178.553681
84.419984,1225.752797,444.123565,9104.533087
84.420310,842.705048,222.061783,9252.574275
84.420636,842.705048,296.082377,9548.656652
84.420962,1608.800546,296.082377,9252.574275
84.421288,0.000000,-0.000000,9548.656652
84.421614,612.876398,222.061783,8882.471304
84.421939,842.705048,148.041188,9326.594869
84.422265,306.438199,222.061783,8882.471304
84.422591,383.047749,-0.000000,8956.491898
84.422917,612.876398,-0.000000,9252.574275
84.423243,0.000000,518.144159,9104.533087
84.423569,0.000000,222.061783,9030.512492
84.423895,-306.438199,296.082377,9030.512492
84.424221,-842.705048,-0.000000,9104.533087
84.424547,-612.876398,-0.000000,9252.574275
84.424873,-689.485948,-0.000000,9178.553681
84.425199,-1225.752797,-296.082377,9474.636058
84.425525,-1762.019645,-222.061783,10066.800811
84.425851,-1455.581446,-296.082377,9696.697840
84.426177,-766.095498,-148.041188,9400.615463
84.426503,-1378.971896,-370.102971,9548.656652
84.426829,-1532.190996,-222.061783,9400.615463
84.427155,-766.095498,148.041188,9326.594869
84.427481,0.000000,592.164754,9252.574275
84.427807,0.000000,-74.020594,8956.491898
84.428133,-383.047749,-0.000000,9030.512492
84.428459,153.219100,222.061783,8660.409521
84.428785,306.438199,296.082377,8660.409521
84.429111,383.047749,370.102971,8734.430116
84.429436,229.828649,-0.000000,8956.491898
84.429762,383.047749,-370.102971,9252.574275
84.430088,459.657299,-518.144159,9474.636058
84.430414,76.609550,-222.061783,9178.553681
84.430740,306.438199,-296.082377,9622.677246
84.431066,153.219100,-0.000000,9548.656652
84.431392,306.438199,-0.000000,9326.594869
84.431718,766.095498,222.061783,9104.533087
84.432044,919.314598,-0.000000,9252.574275
84.432370,995.924147,-74.020594,9400.615463
84.432696,1455.581446,-148.041188,9178.553681
84.433022,1685.410096,-74.020594,9400.615463
84.433348,1838.629195,518.144159,8956.491898
84.433674,1838.629195,-0.000000,9178.553681
84.434000,1762.019645,296.082377,9178.553681
84.434326,1608.800546,222.061783,9030.512492
84.434652,1532.190996,148.041188,8956.491898
84.434978,1991.848295,-222.061783,8808.450710
84.435304,1225.752797,-74.020594,9474.636058
84.435630,1225.752797,370.102971,9178.553681
84.435956,1072.533697,296.082377,8882.471304
84.436282,995.924147,148.041188,9326.594869
84.436608,459.657299,-0.000000,9474.636058
84.436934,766.095498,444.123565,9104.533087
84.437259,459.657299,-0.000000,9104.533087
84.437585,689.485948,148.041188,9400.615463
84.437911,153.219100,-222.061783,9474.636058
84.438237,76.609550,-74.020594,9400.615463
84.438563,0.000000,-0.000000,9104.533087
84.438889,-536.266849,-74.020594,9252.574275
84.439215,-153.219100,-0.000000,9548.656652
84.439541,-995.924147,-148.041188,9326.594869
84.439867,-536.266849,-222.061783,9104.533087
84.440193,-612.876398,-0.000000,9252.574275
84.440519,-536.266849,-74.020594,9104.533087
84.440845,-229.828649,-0.000000,9104.533087
84.441171,-229.828649,-0.000000,9030.512492
84.441497,0.000000,-0.000000,8956.491898
84.441823,306.438199,-0.000000,9030.512492
84.442149,-229.828649,-0.000000,9474.636058
84.442475,0.000000,370.102971,9400.615463
84.442801,76.609550,-0.000000,9400.615463
84.443127,-306.438199,-0.000000,8882.471304
84.443453,0.000000,-0.000000,9252.574275
84.443779,-306.438199,-148.041188,9474.636058
84.444105,-383.047749,-222.061783,9252.574275
84.444431,229.828649,-74.020594,9400.615463
84.444757,229.828649,-518.144159,9178.553681
84.445082,229.828649,-148.041188,9104.533087
84.445408,536.266849,-148.041188,9178.553681
84.445734,612.876398,-74.020594,9030.512492
84.446060,842.705048,-0.000000,8956.491898
84.446386,689.485948,-370.102971,9030.512492
84.446712,1608.800546,-222.061783,9178.553681
84.447038,1455.581446,-0.000000,8956.491898
84.447364,1455.581446,518.144159,9030.512492
84.447690,1302.362347,370.102971,8882.471304
84.448016,1378.971896,296.082377,9178.553681
84.448342,995.924147,444.123565,9030.512492
84.448668,1149.143247,444.123565,9178.553681
84.448994,1225.752797,222.061783,8956.491898
84.449320,919.314598,370.102971,9548.656652
84.449646,919.314598,-0.000000,8956.491898
84.449972,842.705048,370.102971,9326.594869
84.450298,1072.533697,222.061783,9178.553681
84.450624,766.095498,296.082377,9400.615463
84.450950,459.657299,296.082377,9400.615463
84.451276,689.485948,-296.082377,9178.553681
84.451602,766.095498,-74.020594,9548.656652
84.451928,459.657299,-0.000000,9252.574275
84.452254,153.219100,148.041188,9104.533087
84.452580,306.438199,-0.000000,9400.615463
84.452905,0.000000,148.041188,9104.533087
84.453231,153.219100,-0.000000,8956.491898
84.453557,229.828649,296.082377,9474.636058
84.453883,-383.047749,222.061783,9178.553681
84.454209,229.828649,-0.000000,9400.615463
84.454535,-383.047749,296.082377,9252.574275
84.454861,0.000000,-0.000000,9104.533087
84.455187,-229.828649,-0.000000,9474.636058
84.455513,-229.828649,-0.000000,8734.430116
84.455839,-383.047749,-74.020594,9548.656652
84.456165,-459.657299,-0.000000,8734.430116
84.456491,0.000000,148.041188,9400.615463
84.456817,-383.047749,222.061783,9326.594869
84.457143,-306.438199,444.123565,8956.491898
84.457469,-153.219100,222.061783,9326.594869
84.457795,0.000000,-0.000000,9252.574275
84.458121,-459.657299,222.061783,9030.512492
84.458447,0.000000,-0.000000,9474.636058
84.458773,-842.705048,-0.000000,9548.656652
84.459099,0.000000,-222.061783,9178.553681
84.459425,0.000000,-222.061783,9104.533087
84.459751,0.000000,-222.061783,9400.615463
84.460077,306.438199,-444.123565,9548.656652
84.460403,306.438199,-148.041188,9104.533087
84.460728,459.657299,-74.020594,8808.450710
84.461054,153.219100,-296.082377,9178.553681
84.461380,306.438199,444.123565,9474.636058
84.461706,689.485948,814.226536,8882.471304
84.462032,919.314598,740.205942,8586.388927
84.462358,306.438199,-0.000000,8956.491898
84.462684,842.705048,-666.185348,9474.636058
84.463010,612.876398,-0.000000,9992.780217
84.463336,689.485948,-592.164754,9252.574275
84.463662,689.485948,-296.082377,9030.512492
84.463988,919.314598,-148.041188,9474.636058
84.464314,919.314598,222.061783,8956.491898
84.464640,842.705048,814.226536,8660.409521
84.464966,766.095498,296.082377,9252.574275
84.465292,919.314598,1332.370696,8438.347739
84.465618,842.705048,814.226536,8734.430116
84.465944,919.314598,370.102971,8956.491898
84.466270,306.438199,-0.000000,8808.450710
84.466596,-229.828649,-370.102971,9252.574275
84.466922,0.000000,-222.061783,9474.636058
84.467248,0.000000,-222.061783,9622.677246
84.467574,229.828649,-0.000000,9696.697840
84.467900,-229.828649,-0.000000,9770.718434
84.468226,-229.828649,-444.123565,9548.656652
84.468551,0.000000,-296.082377,9622.677246
84.468877,-306.438199,-0.000000,8808.450710
84.469203,-383.047749,-0.000000,8956.491898
84.469529,-229.828649,148.041188,9548.656652
84.469855,0.000000,666.185348,9474.636058
84.470181,229.828649,518.144159,8956.491898
84.470507,0.000000,-0.000000,8734.430116
84.470833,-229.828649,-0.000000,9326.594869
84.471159,0.000000,-0.000000,9474.636058
84.471485,536.266849,-0.000000,9104.533087
84.471811,229.828649,-0.000000,8512.368333
84.472137,-383.047749,-296.082377,9400.615463
84.472463,0.000000,-296.082377,9696.697840
84.472789,-229.828649,-0.000000,9104.533087
84.473115,-306.438199,-0.000000,9474.636058
84.473441,-612.876398,-0.000000,8956.491898
84.473767,-306.438199,296.082377,9178.553681
84.474093,229.828649,370.102971,9252.574275
84.474419,689.485948,-0.000000,8734.430116
84.474745,919.314598,-0.000000,9696.697840
84.475071,612.876398,-370.102971,9326.594869
84.475397,919.314598,-0.000000,8882.471304
84.475723,842.705048,-0.000000,9326.594869
84.476049,842.705048,-222.061783,8882.471304
84.476374,766.095498,-0.000000,9252.574275
84.476700,1302.362347,-0.000000,9104.533087
84.477026,842.705048,-0.000000,9104.533087
84.477352,766.095498,-0.000000,8512.368333
84.477678,766.095498,370.102971,9178.553681
84.478004,1149.143247,222.061783,9030.512492
84.478330,919.314598,148.041188,9252.574275
84.478656,1149.143247,-0.000000,9178.553681
84.478982,766.095498,-0.000000,9252.574275
84.479308,919.314598,-444.123565,9622.677246
84.479634,995.924147,-370.102971,9104.533087
84.479960,1378.971896,-296.082377,9104.533087
84.480286,842.705048,-0.000000,9326.594869
84.480612,536.266849,-0.000000,8956.491898
84.480938,995.924147,296.082377,8956.491898
84.481264,612.876398,148.041188,9030.512492
84.481590,612.876398,-222.061783,8882.471304
84.481916,766.095498,-0.000000,9104.533087
84.482242,383.047749,-0.000000,8512.368333
84.482568,612.876398,-0.000000,8882.471304
84.482894,153.219100,-0.000000,9178.553681
84.483220,0.000000,-74.020594,9178.553681
84.483546,459.657299,-222.061783,9030.512492
84.483872,0.000000,-222.061783,9548.656652
84.484198,229.828649,-370.102971,9474.636058
84.484523,-459.657299,-222.061783,9622.677246
84.484849,-229.828649,-74.020594,9178.553681
84.485175,-306.438199,222.061783,9326.594869
84.485501,-229.828649,222.061783,9178.553681
84.485827,0.000000,222.061783,9178.553681
84.486153,459.657299,148.041188,8882.471304
84.486479,536.266849,-0.000000,8882.471304
84.486805,0.000000,-0.000000,9030.512492
84.487131,76.609550,-0.000000,9252.574275
84.487457,76.609550,-0.000000,9252.574275
84.487783,76.609550,-370.102971,9178.553681
84.488109,0.000000,-148.041188,9178.553681
84.488435,459.657299,-370.102971,9178.553681
84.488761,0.000000,148.041188,9548.656652
84.489087,536.266849,-0.000000,9104.533087
84.489413,153.219100,518.144159,8956.491898
84.489739,306.438199,370.102971,8882.471304
84.490065,76.609550,370.102971,9178.553681
84.490391,306.438199,296.082377,9400.615463
84.490717,842.705048,-0.000000,9030.512492
84.491043,766.095498,666.185348,9474.636058
84.491369,612.876398,-296.082377,9252.574275
84.491695,842.705048,-0.000000,9474.636058
84.492021,919.314598,-74.020594,9326.594869
84.492346,995.924147,-148.041188,9104.533087
84.492672,995.924147,-222.061783,9474.636058
84.492998,1302.362347,-74.020594,9252.574275
84.493324,1608.800546,518.144159,8882.471304
84.493650,1225.752797,-0.000000,8882.471304
84.493976,1149.143247,444.123565,9400.615463
84.494302,1225.752797,518.144159,8586.388927
84.494628,1685.410096,666.185348,8956.491898
84.494954,1072.533697,592.164754,8660.409521
84.495280,842.705048,-0.000000,9474.636058
84.495606,1838.629195,-148.041188,9696.697840
84.495932,995.924147,-74.020594,9178.553681
84.496258,766.095498,-518.144159,9474.636058
84.496584,0.000000,-518.144159,9400.615463
84.496910,76.609550,-74.020594,9474.636058
84.497236,0.000000,-0.000000,9400.615463
84.497562,306.438199,-222.061783,8956.491898
84.497888,0.000000,-0.000000,9104.533087
84.498214,-229.828649,-0.000000,9400.615463
84.498540,306.438199,-0.000000,8734.430116
84.498866,76.609550,296.082377,8660.409521
84.499192,0.000000,74.020594,8882.471304
84.499518,-153.219100,-0.000000,8808.450710
84.499844,0.000000,-0.000000,8882.471304
84.500169,0.000000,222.061783,8660.409521
84.500495,-612.876398,-148.041188,8734.430116
84.500821,-995.924147,-74.020594,9326.594869
84.501147,-919.314598,-0.000000,9252.574275
84.501473,-919.314598,-0.000000,9400.615463
84.501799,-1072.533697,-0.000000,9326.594869
84.502125,-1149.143247,-74.020594,9474.636058
84.502451,-1072.533697,-0.000000,9696.697840
84.502777,-306.438199,-0.000000,9474.636058
84.503103,-612.876398,296.082377,9770.718434
84.503429,-459.657299,-0.000000,9326.594869
84.503755,0.000000,-296.082377,9400.615463
84.504081,76.609550,-296.082377,9178.553681
84.504407,306.438199,-148.041188,9252.574275
84.504733,536.266849,-0.000000,9252.574275
84.505059,995.924147,-592.164754,9326.594869
84.505385,919.314598,222.061783,9474.636058
84.505711,995.924147,-0.000000,9622.677246
84.506037,1302.362347,296.082377,8956.491898
84.506363,1378.971896,148.041188,9030.512492
84.506689,1378.971896,296.082377,9178.553681
84.507015,1378.971896,296.082377,9030.512492
84.507341,1608.800546,1036.288319,8956.491898
84.507667,1685.410096,592.164754,9178.553681
84.507992,995.924147,370.102971,8660.409521
84.508318,842.705048,370.102971,9178.553681
84.508644,612.876398,222.061783,9104.533087
84.508970,153.219100,-0.000000,9178.553681
84.509296,-153.219100,-0.000000,9696.697840
84.509622,-306.438199,148.041188,9326.594869
84.509948,-689.485948,-222.061783,9474.636058
84.510274,-459.657299,-74.020594,9770.718434
84.510600,-766.095498,-0.000000,8882.471304
84.510926,-612.876398,-0.000000,9252.574275
84.511252,-766.095498,518.144159,8956.491898
84.511578,-459.657299,666.185348,8586.388927
84.511904,-459.657299,740.205942,8586.388927
84.512230,-842.705048,518.144159,9030.512492
84.512556,-1455.581446,148.041188,9104.533087
84.512882,-1838.629195,-0.000000,9178.553681
84.513208,-2068.457845,-222.061783,9178.553681
84.513534,-2298.286494,-0.000000,9474.636058
84.513860,-2451.505594,-222.061783,9918.759623
84.514186,-2298.286494,-740.205942,9622.677246
84.514512,-2451.505594,-518.144159,9918.759623
84.514838,-2834.553343,-592.164754,10362.883188
84.515164,-2221.676944,-222.061783,9548.656652
84.515490,-1685.410096,-0.000000,9474.636058
84.515815,-1608.800546,-0.000000,9178.553681
84.516141,-1149.143247,370.102971,8956.491898
84.516467,-919.314598,-0.000000,9252.574275
84.516793,-153.219100,-0.000000,9622.677246
84.517119,0.000000,-0.000000,9030.512492
84.517445,459.657299,-0.000000,9030.512492
84.517771,842.705048,-0.000000,8882.471304
84.518097,612.876398,-0.000000,9178.553681
84.518423,1225.752797,222.061783,9030.512492
84.518749,1608.800546,296.082377,9252.574275
84.519075,919.314598,222.061783,9178.553681
84.519401,1149.143247,-222.061783,9326.594869
84.519727,842.705048,296.082377,8808.450710
84.520053,1149.143247,296.082377,9252.574275
84.520379,919.314598,370.102971,8882.471304
84.520705,612.876398,296.082377,8956.491898
84.521031,919.314598,-148.041188,8882.471304
84.521357,612.876398,-0.000000,9326.594869
84.521683,919.314598,-0.000000,9030.512492
84.522008,459.657299,-0.000000,9326.594869
84.522334,383.047749,-0.000000,8956.491898
84.522660,306.438199,148.041188,9400.615463
84.522986,229.828649,-74.020594,9400.615463
84.523312,0.000000,-222.061783,8956.491898
84.523638,-919.314598,148.041188,9474.636058
84.523964,0.000000,-148.041188,9104.533087
84.524290,0.000000,518.144159,9326.594869
84.524616,-153.219100,148.041188,9252.574275
84.524942,-383.047749,518.144159,9252.574275
84.525268,-995.924147,444.123565,9030.512492
84.525594,-919.314598,-0.000000,8956.491898
84.525919,-1302.362347,222.061783,9030.512492
84.526245,-1225.752797,-0.000000,9400.615463
84.526571,-1532.190996,74.020594,9178.553681
84.526897,-1838.629195,-0.000000,9474.636058
84.527223,-1838.629195,148.041188,9326.594869
84.527549,-1762.019645,-0.000000,9252.574275
84.527875,-2068.457845,-148.041188,9326.594869
84.528201,-1685.410096,-370.102971,9696.697840
84.528527,-1762.019645,-518.144159,9252.574275
84.528853,-1608.800546,-0.000000,9326.594869
84.529179,-1455.581446,-0.000000,9030.512492
84.529505,-1532.190996,148.041188,9030.512492
84.529830,-1378.971896,370.102971,8956.491898
84.530156,-1072.533697,-0.000000,8808.450710
84.530482,-1072.533697,444.123565,9104.533087
84.530808,-995.924147,148.041188,8586.388927
84.531134,-1225.752797,-0.000000,8660.409521
84.531460,-1149.143247,-74.020594,9030.512492
84.531786,-1225.752797,-296.082377,9474.636058
84.532112,-1072.533697,-222.061783,9474.636058
84.532438,0.000000,-370.102971,9474.636058
84.532764,-612.876398,-666.185348,9770.718434
84.533090,-459.657299,-666.185348,9622.677246
84.533416,0.000000,-74.020594,9992.780217
84.533741,153.219100,296.082377,8734.430116
84.534067,612.876398,370.102971,8808.450710
84.534393,536.266849,370.102971,8882.471304
84.534719,612.876398,518.144159,8512.368333
84.535045,1455.581446,518.144159,9030.512492
84.535371,919.314598,-0.000000,8438.347739
84.535697,919.314598,148.041188,8734.430116
84.536023,536.266849,-0.000000,8956.491898
84.536349,612.876398,-0.000000,9030.512492
84.536675,229.828649,-222.061783,9474.636058
84.537001,0.000000,-444.123565,9474.636058
84.537327,-306.438199,-296.082377,9474.636058
84.537652,0.000000,-444.123565,9622.677246
84.537978,-459.657299,-296.082377,9770.718434
84.538304,-536.266849,148.041188,8734.430116
84.538630,-306.438199,222.061783,9474.636058
84.538956,0.000000,296.082377,9104.533087
84.539282,0.000000,444.123565,8586.388927
84.539608,153.219100,740.205942,8734.430116
84.539934,459.657299,666.185348,9326.594869
84.540260,0.000000,444.123565,9252.574275
84.540586,383.047749,444.123565,8956.491898
84.540912,-229.828649,296.082377,8882.471304
84.541238,-612.876398,-0.000000,9104.533087
84.541563,-612.876398,-296.082377,9548.656652
84.541889,-1762.019645,-74.020594,9548.656652
84.542215,-689.485948,-296.082377,9696.697840
84.542541,-1838.629195,-148.041188,9400.615463
84.542867,-1378.971896,-0.000000,9622.677246
84.543193,-1991.848295,-148.041188,9622.677246
84.543519,-1685.410096,296.082377,8882.471304
84.543845,-1455.581446,-0.000000,9548.656652
84.544171,-1608.800546,222.061783,9178.553681
84.544497,-766.095498,222.061783,8882.471304
84.544823,-612.876398,-0.000000,9326.594869
84.545149,-766.095498,-0.000000,9400.615463
84.545474,-1225.752797,-74.020594,8808.450710
84.545800,-919.314598,-222.061783,9548.656652
84.546126,-919.314598,-0.000000,8882.471304
84.546452,-842.705048,-222.061783,9104.533087
84.546778,-995.924147,-296.082377,9178.553681
84.547104,-842.705048,-0.000000,9474.636058
84.547430,-459.657299,296.082377,9104.533087
84.547756,-459.657299,222.061783,8512.368333
84.548082,-1072.533697,222.061783,9030.512492
84.548408,-689.485948,-0.000000,9548.656652
84.548734,0.000000,518.144159,9252.574275
84.549060,-383.047749,-0.000000,8586.388927
84.549385,-153.219100,-518.144159,9474.636058
84.549711,-229.828649,-370.102971,9178.553681
84.550037,76.609550,-0.000000,9252.574275
84.550363,383.047749,222.061783,8956.491898
84.550689,76.609550,296.082377,8882.471304
84.551015,153.219100,444.123565,9400.615463
84.551341,306.438199,-0.000000,9252.574275
84.551667,459.657299,222.061783,8882.471304
84.551993,306.438199,-0.000000,8882.471304
84.552319,153.219100,-0.000000,9326.594869
84.552645,76.609550,148.041188,9178.553681
84.552971,0.000000,-222.061783,9326.594869
84.553296,0.000000,-148.041188,9400.615463
84.553622,76.609550,-0.000000,9326.594869
84.553948,0.000000,222.061783,9474.636058
84.554274,383.047749,-0.000000,9178.553681
84.554600,689.485948,370.102971,9474.636058
84.554926,153.219100,592.164754,9326.594869
84.555252,0.000000,222.061783,8956.491898
84.555578,0.000000,296.082377,8882.471304
84.555904,306.438199,518.144159,9178.553681
84.556230,-306.438199,-0.000000,9178.553681
84.556556,0.000000,-0.000000,9474.636058
84.556882,0.000000,-0.000000,9178.553681
84.557207,-383.047749,-222.061783,9030.512492
84.557533,-995.924147,-148.041188,9326.594869
84.557859,-1072.533697,-296.082377,9770.718434
84.558185,-536.266849,222.061783,9474.636058
84.558511,-459.657299,148.041188,9252.574275
84.558837,-842.705048,-0.000000,8438.347739
84.559163,-919.314598,148.041188,9696.697840
84.559489,-842.705048,-0.000000,9400.615463
84.559815,-459.657299,666.185348,8882.471304
84.560141,-612.876398,518.144159,8808.450710
84.560467,-689.485948,-0.000000,9252.574275
84.560793,-536.266849,-0.000000,9178.553681
84.561118,-383.047749,-0.000000,8882.471304
84.561444,-842.705048,-370.102971,8956.491898
84.561770,-1149.143247,-296.082377,9104.533087
84.562096,-689.485948,-148.041188,9400.615463
84.562422,-842.705048,370.102971,9030.512492
84.562748,-842.705048,-0.000000,9178.553681
84.563074,-1302.362347,-0.000000,9326.594869
84.563400,-1149.143247,-148.041188,9252.574275
84.563726,-689.485948,518.144159,9400.615463
84.564052,-612.876398,-0.000000,9104.533087
84.564378,-919.314598,444.123565,9178.553681
84.564703,-536.266849,-0.000000,9178.553681
84.565029,-612.876398,-0.000000,8882.471304
84.565355,-536.266849,-74.020594,9400.615463
84.565681,-612.876398,-370.102971,9400.615463
84.566007,-459.657299,-0.000000,9400.615463
84.566333,76.609550,222.061783,9030.512492
84.566659,-383.047749,296.082377,8956.491898
84.566985,-536.266849,222.061783,8734.430116
84.567311,-306.438199,296.082377,9326.594869
84.567637,-842.705048,296.082377,9030.512492
84.567963,-229.828649,-0.000000,9030.512492
84.568289,-153.219100,148.041188,9104.533087
84.568614,-306.438199,-222.061783,9252.574275
84.568940,-612.876398,-74.020594,9400.615463
84.569266,-383.047749,-74.020594,9252.574275
84.569592,-842.705048,-74.020594,9030.512492
84.569918,-919.314598,-222.061783,9548.656652
84.570244,-459.657299,148.041188,9474.636058
84.570570,0.000000,296.082377,9178.553681
84.570896,-153.219100,-296.082377,8882.471304
84.571222,-689.485948,-0.000000,9548.656652
84.571548,-689.485948,-222.061783,9326.594869
84.571874,-383.047749,-0.000000,8882.471304
84.572200,0.000000,592.164754,9178.553681
84.572525,-306.438199,444.123565,9326.594869
84.572851,-153.219100,-222.061783,8956.491898
84.573177,-229.828649,222.061783,8734.430116
84.573503,-689.485948,-0.000000,9178.553681
84.573829,-689.485948,148.041188,9326.594869
84.574155,-766.095498,370.102971,9178.553681
84.574481,-536.266849,370.102971,8956.491898
84.574807,-689.485948,-0.000000,9104.533087
84.575133,-766.095498,-296.082377,9622.677246
84.575459,-1149.143247,-0.000000,9548.656652
84.575785,-1149.143247,222.061783,9178.553681
84.576111,-1149.143247,-0.000000,9178.553681
84.576436,-919.314598,-0.000000,9400.615463
84.576762,-842.705048,296.082377,9474.636058
84.577088,-459.657299,-0.000000,9178.553681
84.577414,-689.485948,-222.061783,8734.430116
84.577740,-536.266849,222.061783,9474.636058
84.578066,-459.657299,148.041188,8660.409521
84.578392,-229.828649,296.082377,8882.471304
84.578718,-229.828649,-0.000000,9030.512492
84.579044,-612.876398,-0.000000,9400.615463
84.579370,0.000000,-74.020594,9474.636058
84.579696,-766.095498,-0.000000,9252.574275
84.580022,-536.266849,-0.000000,8808.450710
84.580347,-536.266849,-0.000000,9696.697840
84.580673,-306.438199,-0.000000,9400.615463
84.580999,-153.219100,-74.020594,9178.553681
84.581325,-229.828649,-0.000000,9104.533087
84.581651,153.219100,-0.000000,9030.512492
84.581977,-229.828649,-0.000000,9252.574275
84.582303,536.266849,-0.000000,8660.409521
84.582629,229.828649,-0.000000,8882.471304
84.582955,229.828649,-0.000000,8956.491898
84.583281,76.609550,-74.020594,9252.574275
84.583607,0.000000,-0.000000,8808.450710
84.583933,0.000000,-0.000000,9104.533087
84.584258,0.000000,148.041188,9326.594869
84.584584,306.438199,-0.000000,9326.594869
84.584910,0.000000,-296.082377,8734.430116
84.585236,-306.438199,-222.061783,9030.512492
84.585562,-536.266849,-0.000000,9474.636058
84.585888,-459.657299,370.102971,9252.574275
84.586214,-459.657299,666.185348,8586.388927
84.586540,-306.438199,518.144159,9252.574275
84.586866,-689.485948,-0.000000,9104.533087
84.587192,-689.485948,-0.000000,9622.677246
84.587518,-842.705048,-222.061783,9178.553681
84.587844,-919.314598,-0.000000,9178.553681
84.588169,-1149.143247,-0.000000,9178.553681
84.588495,-1072.533697,-0.000000,9178.553681
84.588821,-919.314598,-0.000000,9326.594869
84.589147,-2145.067394,-222.061783,9178.553681
84.589473,-995.924147,-296.082377,9770.718434
84.589799,-1072.533697,-0.000000,9104.533087
84.590125,-842.705048,-222.061783,9252.574275
84.590451,-842.705048,-0.000000,8956.491898
84.590777,-919.314598,-0.000000,8956.491898
84.591103,-612.876398,-0.000000,9326.594869
84.591429,-229.828649,296.082377,9030.512492
84.591755,0.000000,-0.000000,9030.512492
84.592080,-459.657299,148.041188,9400.615463
84.592406,0.000000,-0.000000,9178.553681
84.592732,153.219100,-0.000000,9104.533087
84.593058,153.219100,222.061783,9252.574275
84.593384,153.219100,-74.020594,9326.594869
84.593710,306.438199,518.144159,9400.615463
84.594036,842.705048,-0.000000,9178.553681
84.594362,612.876398,592.164754,9326.594869
84.594688,459.657299,222.061783,9326.594869
84.595014,612.876398,296.082377,9104.533087
84.595340,842.705048,296.082377,9104.533087
84.595666,842.705048,-0.000000,8956.491898
84.595991,1302.362347,296.082377,9178.553681
84.596317,383.047749,-0.000000,9548.656652
84.596643,842.705048,-74.020594,8882.471304
84.596969,766.095498,-0.000000,9178.553681
84.597295,766.095498,-0.000000,9326.594869
84.597621,383.047749,370.102971,8734.430116
84.597947,0.000000,296.082377,9030.512492
84.598273,229.828649,296.082377,8956.491898
84.598599,76.609550,888.247130,9326.594869
84.598925,-383.047749,148.041188,8956.491898
84.599251,-459.657299,-0.000000,9252.574275
84.599577,-689.485948,-0.000000,9400.615463
84.599902,-842.705048,-0.000000,9178.553681
84.600228,-842.705048,-0.000000,9178.553681
84.600554,-919.314598,-518.144159,9770.718434
84.600880,-1225.752797,-148.041188,9918.759623
84.601206,-842.705048,-222.061783,9474.636058
84.601532,-1072.533697,-74.020594,9104.533087
84.601858,-536.266849,-222.061783,9104.533087
84.602184,-383.047749,-0.000000,9622.677246
84.602510,0.000000,148.041188,9104.533087
84.602836,689.485948,222.061783,8808.450710
84.603162,689.485948,370.102971,8956.491898
84.603488,766.095498,-0.000000,8956.491898
84.603813,229.828649,370.102971,8586.388927
84.604139,153.219100,888.247130,8734.430116
84.604465,306.438199,370.102971,9104.533087
84.604791,306.438199,-0.000000,9252.574275
84.605117,153.219100,-148.041188,9326.594869
84.605443,0.000000,-444.123565,9474.636058
84.605769,383.047749,148.041188,9770.718434
84.606095,536.266849,-0.000000,9770.718434
84.606421,612.876398,-0.000000,9548.656652
84.606747,766.095498,-0.000000,9474.636058
84.607073,995.924147,-0.000000,9474.636058
84.607399,1378.971896,-148.041188,9400.615463
84.607724,1608.800546,-0.000000,9474.636058
84.608050,1378.971896,74.020594,8882.471304
84.608376,1225.752797,222.061783,8808.450710
84.608702,1455.581446,370.102971,8882.471304
84.609028,1302.362347,222.061783,9030.512492
84.609354,1225.752797,222.061783,9104.533087
84.609680,1685.410096,-0.000000,9178.553681
84.610006,306.438199,370.102971,8882.471304
84.610332,919.314598,-0.000000,9178.553681
84.610658,306.438199,148.041188,9622.677246
84.610984,689.485948,296.082377,9400.615463
84.611310,766.095498,-0.000000,9326.594869
84.611635,459.657299,-74.020594,9178.553681
84.611961,612.876398,-296.082377,9474.636058
84.612287,842.705048,74.020594,9326.594869
84.612613,536.266849,-0.000000,8956.491898
84.612939,612.876398,-0.000000,8808.450710
84.613265,-229.828649,-74.020594,9178.553681
84.613591,-536.266849,-0.000000,9252.574275
84.613917,-536.266849,-0.000000,9030.512492
84.614243,-536.266849,148.041188,9252.574275
84.614569,-459.657299,-148.041188,9474.636058
84.614895,-459.657299,-592.164754,8660.409521
84.615221,-383.047749,-296.082377,9178.553681
84.615546,-306.438199,-0.000000,9178.553681
84.615872,-153.219100,-74.020594,9104.533087
84.616198,0.000000,-222.061783,9252.574275
84.616524,0.000000,-0.000000,8882.471304
84.616850,229.828649,-148.041188,8882.471304
84.617176,0.000000,222.061783,9178.553681
84.617502,76.609550,-74.020594,9178.553681
84.617828,459.657299,-0.000000,9030.512492
